t_ms,ax,ay,az,steps
125383,167,-929,-328,0
125424,163,-929,-328,0
125465,166,-929,-328,0
125506,170,-930,-328,0
125547,173,-927,-328,0
125588,171,-926,-328,0
125629,166,-931,-328,0
125670,165,-930,-328,0
125711,165,-931,-328,0
125752,166,-931,-328,0
125793,166,-931,-328,0
125834,167,-930,-328,0
125875,167,-930,-329,0
125920,167,-929,-328,0
125961,167,-930,-328,0
126002,167,-929,-329,0
126043,166,-931,-328,0
126084,166,-930,-328,0
126125,168,-931,-328,0
126167,168,-930,-329,0
126207,166,-929,-328,0
126248,166,-930,-329,0
126289,167,-929,-328,0
126330,167,-930,-329,0
126371,167,-929,-328,0
126412,166,-929,-328,0
126453,168,-929,-328,0
126494,169,-930,-328,0
126535,168,-929,-328,0
126576,167,-930,-328,0
126617,167,-929,-328,0
126658,167,-930,-328,0
126699,167,-931,-328,0
126740,166,-930,-328,0
126782,168,-931,-328,0
126823,168,-929,-329,0
126864,169,-929,-328,0
126905,168,-927,-328,0
126946,166,-928,-328,0
126988,167,-929,-328,0
127029,167,-931,-328,0
127070,168,-932,-328,0
127111,167,-930,-329,0
127152,169,-930,-329,0
127194,168,-931,-328,0
127235,166,-928,-328,0
127276,167,-928,-328,0
127317,167,-929,-328,0
127358,169,-931,-329,0
127400,167,-930,-328,0
127441,167,-930,-329,0
127482,167,-929,-329,0
127523,167,-931,-328,0
127564,167,-931,-328,0
127605,169,-930,-328,0
127646,168,-930,-328,0
127687,167,-929,-328,0
127728,167,-929,-328,0
127769,167,-931,-328,0
127810,166,-931,-328,0
127851,166,-931,-328,0
127892,167,-930,-328,0
127933,167,-930,-329,0
127974,168,-929,-329,0
128015,168,-930,-328,0
128056,166,-929,-328,0
128097,166,-929,-329,0
128138,167,-929,-328,0
128179,168,-931,-328,0
128220,168,-928,-328,0
128261,167,-930,-328,0
128302,166,-929,-328,0
128343,167,-930,-328,0
128385,166,-929,-328,0
128426,167,-928,-328,0
128467,168,-930,-328,0
128508,168,-930,-328,0
128549,167,-929,-329,0
128590,168,-929,-328,0
128631,167,-931,-329,0
128672,167,-929,-329,0
128713,166,-930,-328,0
128754,167,-931,-328,0
128795,168,-931,-328,0
128836,168,-929,-328,0
128877,168,-930,-328,0
128918,167,-929,-328,0
128959,165,-928,-328,0
129000,169,-931,-329,0
129041,168,-930,-329,0
129082,167,-932,-328,0
129123,166,-930,-328,0
129164,165,-929,-328,0
129205,166,-929,-328,0
129247,167,-929,-328,0
129288,168,-931,-329,0
129329,170,-930,-328,0
129370,167,-932,-328,0
129411,166,-931,-328,0
129452,166,-930,-329,0
129494,168,-931,-329,0
129535,168,-929,-328,0
129576,168,-928,-329,0
129617,168,-930,-328,0
129658,167,-930,-328,0
129700,168,-930,-329,0
129741,166,-931,-328,0
129782,165,-930,-329,0
129823,166,-929,-328,0
129864,170,-931,-328,0
129906,169,-928,-328,0
129947,167,-932,-329,0
129988,164,-929,-328,0
130029,166,-930,-328,0
130070,169,-931,-329,0
130112,170,-929,-329,0
130153,170,-930,-328,0
130194,168,-931,-328,0
130235,166,-930,-328,0
130276,165,-930,-329,0
130318,166,-929,-328,0
130359,168,-930,-328,0
130400,169,-929,-328,0
130441,170,-929,-328,0
130482,167,-928,-328,0
130523,166,-931,-328,0
130564,166,-929,-329,0
130605,168,-931,-328,0
130646,167,-929,-328,0
130687,166,-929,-328,0
130728,168,-931,-328,0
130769,169,-930,-328,0
130810,168,-930,-328,0
130851,166,-929,-329,0
130892,166,-929,-328,0
130933,166,-931,-328,0
130974,167,-929,-328,0
131015,168,-930,-329,0
131059,169,-930,-328,0
131100,168,-930,-328,0
131141,166,-929,-328,0
131182,166,-930,-329,0
131223,166,-929,-328,0
131264,168,-931,-329,0
131306,168,-930,-328,0
131346,168,-930,-328,0
131387,167,-931,-328,0
131428,168,-930,-329,0
131469,167,-929,-329,0
131510,167,-931,-328,0
131551,166,-929,-328,0
131592,168,-931,-328,0
131633,169,-930,-328,0
131674,168,-929,-328,0
131715,167,-930,-328,0
131756,166,-928,-328,0
131797,166,-931,-328,0
131838,167,-930,-328,0
131879,168,-929,-328,0
131920,168,-931,-328,0
131961,168,-929,-329,0
132002,166,-929,-328,0
132043,167,-930,-329,0
132084,167,-930,-329,0
132125,168,-930,-328,0
132166,167,-930,-329,0
132208,168,-930,-328,0
132249,168,-929,-328,0
132290,168,-931,-328,0
132331,169,-930,-329,0
132372,167,-929,-328,0
132414,167,-930,-328,0
132455,166,-929,-328,0
132496,168,-931,-328,0
132537,170,-930,-329,0
132578,168,-930,-328,0
132620,167,-931,-328,0
132661,165,-929,-328,0
132702,167,-931,-328,0
132743,168,-931,-328,0
132784,168,-929,-328,0
132826,168,-930,-328,0
132867,167,-930,-328,0
132908,167,-930,-328,0
132949,166,-931,-328,0
132990,167,-930,-329,0
133032,168,-931,-328,0
133073,167,-930,-329,0
133114,167,-930,-329,0
133155,168,-930,-328,0
133196,168,-931,-328,0
133238,168,-929,-328,0
133279,167,-930,-328,0
133320,166,-930,-328,0
133362,164,-930,-328,0
133402,168,-931,-328,0
133444,169,-930,-329,0
133485,169,-930,-328,0
133526,166,-931,-328,0
133567,165,-928,-328,0
133608,167,-931,-328,0
133649,167,-930,-328,0
133690,169,-929,-328,0
133732,167,-932,-328,0
133773,167,-931,-328,0
133814,168,-929,-328,0
133855,167,-931,-328,0
133896,167,-930,-329,0
133937,169,-931,-328,0
133978,167,-930,-328,0
134019,168,-930,-329,0
134060,168,-930,-328,0
134101,166,-931,-329,0
134142,169,-929,-328,0
134183,168,-930,-328,0
134224,168,-930,-328,0
134265,166,-930,-328,0
134306,167,-932,-328,0
134347,168,-931,-329,0
134388,168,-928,-328,0
134429,168,-933,-328,0
134470,166,-929,-328,0
134511,167,-931,-328,0
134552,166,-932,-328,0
134593,167,-930,-328,0
134634,169,-930,-328,0
134675,169,-929,-329,0
134716,168,-929,-328,0
134757,166,-930,-328,0
134798,167,-930,-329,0
134839,168,-931,-329,0
134881,168,-930,-328,0
134922,167,-930,-328,0
134963,168,-931,-328,0
135004,168,-931,-328,0
135045,167,-931,-328,0
135086,168,-930,-329,0
135128,168,-930,-328,0
135169,167,-930,-328,0
135210,165,-929,-328,0
135251,169,-931,-329,0
135292,170,-931,-328,0
135334,168,-930,-328,0
135375,165,-930,-329,0
135416,166,-930,-328,0
135457,167,-931,-328,0
135498,167,-930,-329,0
135540,168,-930,-329,0
135581,169,-930,-329,0
135622,167,-930,-328,0
135663,167,-932,-329,0
135704,167,-930,-328,0
135746,167,-930,-328,0
135787,168,-931,-328,0
135828,167,-931,-328,0
135869,167,-929,-329,0
135910,168,-928,-329,0
135951,169,-930,-328,0
135993,169,-931,-328,0
136034,168,-930,-328,0
136075,167,-931,-328,0
136116,166,-930,-328,0
136158,166,-930,-328,0
136204,169,-931,-329,0
136245,169,-929,-328,0
136286,168,-932,-329,0
136327,166,-929,-329,0
136369,168,-930,-328,0
136411,166,-930,-328,0
136452,168,-930,-328,0
136493,169,-930,-329,0
136534,169,-930,-329,0
136576,167,-929,-328,0
136617,167,-930,-328,0
136658,166,-932,-328,0
136699,168,-930,-328,0
136740,168,-930,-328,0
136781,168,-930,-328,0
136822,167,-930,-329,0
136863,168,-930,-328,0
136904,168,-931,-329,0
136945,169,-930,-328,0
136986,167,-929,-328,0
137027,168,-930,-328,0
137068,166,-930,-328,0
137109,169,-931,-328,0
137150,170,-930,-328,0
137191,168,-930,-328,0
137233,167,-931,-329,0
137274,166,-929,-328,0
137315,167,-931,-328,0
137356,167,-931,-329,0
137397,168,-930,-328,0
137439,169,-930,-328,0
137480,169,-930,-328,0
137521,166,-929,-328,0
137562,166,-929,-328,0
137603,166,-931,-327,0
137644,168,-930,-328,0
137685,168,-930,-328,0
137726,168,-931,-328,0
137767,167,-928,-328,0
137808,167,-930,-328,0
137849,167,-930,-329,0
137890,169,-928,-328,0
137931,168,-931,-328,0
137972,168,-931,-328,0
138013,166,-930,-328,0
138054,169,-931,-328,0
138095,168,-929,-328,0
138136,167,-930,-329,0
138177,166,-932,-328,0
138218,166,-929,-328,0
138260,167,-932,-328,0
138301,168,-930,-328,0
138342,170,-931,-328,0
138383,169,-930,-328,0
138424,169,-931,-328,0
138466,168,-929,-328,0
138507,167,-931,-328,0
138548,167,-931,-328,0
138589,168,-930,-329,0
138630,168,-930,-328,0
138671,167,-930,-329,0
138712,168,-930,-328,0
138753,167,-930,-328,0
138794,167,-931,-328,0
138835,167,-930,-328,0
138877,167,-932,-328,0
138918,167,-931,-328,0
138959,167,-931,-327,0
139000,169,-931,-329,0
139041,170,-929,-329,0
139083,167,-932,-328,0
139124,166,-929,-329,0
139165,166,-931,-328,0
139206,167,-932,-328,0
139247,168,-930,-329,0
139289,169,-931,-328,0
139329,168,-930,-329,0
139370,168,-930,-329,0
139412,167,-930,-328,0
139452,167,-931,-328,0
139494,167,-931,-328,0
139535,169,-931,-328,0
139576,167,-931,-329,0
139617,167,-929,-329,0
139658,168,-930,-328,0
139699,167,-930,-328,0
139740,169,-930,-328,0
139781,167,-930,-328,0
139822,166,-931,-329,0
139863,166,-929,-328,0
139904,169,-933,-328,0
139945,170,-930,-329,0
139986,168,-931,-328,0
140027,167,-930,-328,0
140068,167,-930,-328,0
140109,166,-931,-328,0
140151,168,-930,-328,0
140191,168,-931,-328,0
140232,169,-929,-328,0
140273,168,-930,-329,0
140314,167,-930,-328,0
140355,167,-932,-328,0
140396,168,-932,-329,0
140437,167,-931,-327,0
140478,168,-931,-328,0
140519,169,-930,-328,0
140560,169,-928,-328,0
140601,168,-929,-328,0
140642,169,-931,-328,0
140683,167,-931,-328,0
140724,167,-932,-328,0
140766,166,-931,-326,0
140807,168,-930,-328,0
140848,171,-931,-329,0
140889,170,-928,-329,0
140930,168,-929,-328,0
140971,166,-929,-328,0
141012,166,-930,-328,0
141053,168,-933,-328,0
141094,167,-930,-327,0
141136,169,-930,-329,0
141178,169,-929,-328,0
141219,169,-930,-328,0
141260,168,-930,-329,0
141301,167,-932,-328,0
141345,168,-931,-328,0
141387,167,-930,-329,0
141428,168,-929,-328,0
141469,169,-930,-328,0
141510,167,-930,-328,0
141551,167,-930,-328,0
141593,168,-931,-329,0
141634,166,-930,-328,0
141675,167,-931,-328,0
141716,169,-932,-328,0
141757,169,-930,-329,0
141799,168,-930,-329,0
141840,167,-931,-329,0
141881,166,-930,-328,0
141922,168,-931,-328,0
141963,169,-931,-327,0
142005,169,-930,-328,0
142046,168,-930,-328,0
142087,167,-931,-328,0
142128,168,-931,-328,0
142169,167,-930,-328,0
142211,168,-932,-328,0
142252,167,-931,-328,0
142293,167,-931,-328,0
142334,168,-930,-328,0
142375,168,-930,-327,0
142417,168,-929,-328,0
142458,168,-931,-329,0
142499,166,-929,-328,0
142540,166,-932,-328,0
142581,168,-932,-328,0
142622,170,-931,-329,0
142663,168,-931,-329,0
142704,168,-930,-328,0
142745,167,-930,-328,0
142786,167,-932,-328,0
142827,168,-932,-327,0
142868,168,-930,-327,0
142909,168,-931,-328,0
142950,168,-930,-328,0
142991,168,-930,-328,0
143032,168,-930,-328,0
143073,168,-932,-328,0
143114,168,-931,-328,0
143155,168,-929,-328,0
143197,166,-930,-329,0
143238,168,-931,-328,0
143279,167,-931,-328,0
143320,168,-930,-329,0
143361,168,-930,-329,0
143402,167,-931,-328,0
143443,167,-931,-329,0
143484,168,-932,-328,0
143525,169,-930,-328,0
143566,168,-930,-328,0
143607,167,-932,-328,0
143648,166,-930,-329,0
143690,166,-932,-328,0
143731,167,-931,-329,0
143772,168,-931,-328,0
143813,169,-932,-328,0
143854,168,-930,-329,0
143896,167,-931,-328,0
143937,167,-931,-328,0
143978,168,-931,-328,0
144019,167,-931,-329,0
144060,168,-931,-329,0
144102,167,-930,-329,0
144143,168,-929,-328,0
144184,170,-931,-329,0
144225,170,-931,-328,0
144266,167,-931,-328,0
144307,166,-931,-328,0
144348,166,-930,-328,0
144389,170,-932,-327,0
144430,171,-931,-327,0
144471,168,-929,-328,0
144513,166,-930,-329,0
144554,167,-929,-328,0
144595,168,-931,-328,0
144636,169,-933,-327,0
144677,167,-931,-328,0
144719,168,-932,-328,0
144760,167,-930,-328,0
144801,167,-928,-328,0
144842,169,-930,-328,0
144883,171,-931,-326,0
144925,169,-932,-328,0
144966,166,-931,-326,0
145007,165,-930,-329,0
145048,167,-931,-328,0
145089,169,-932,-328,0
145130,169,-930,-328,0
145171,169,-930,-328,0
145212,166,-929,-328,0
145253,167,-932,-328,0
145294,169,-931,-328,0
145335,170,-930,-329,0
145376,168,-931,-328,0
145417,168,-932,-328,0
145458,167,-928,-328,0
145499,167,-930,-329,0
145540,167,-931,-328,0
145581,169,-931,-329,0
145622,170,-932,-328,0
145663,168,-931,-328,0
145704,166,-931,-328,0
145745,166,-930,-328,0
145786,167,-930,-329,0
145827,169,-930,-327,0
145868,169,-930,-329,0
145909,169,-929,-328,0
145950,169,-931,-328,0
145991,168,-929,-328,0
146032,166,-933,-328,0
146073,165,-931,-328,0
146114,167,-931,-328,0
146155,170,-931,-328,0
146196,170,-929,-329,0
146237,169,-931,-328,0
146278,167,-930,-329,0
146319,166,-929,-328,0
146360,168,-932,-327,0
146401,167,-931,-329,0
146442,169,-930,-328,0
146487,170,-932,-328,0
146528,167,-930,-329,0
146569,166,-931,-328,0
146610,166,-932,-328,0
146651,168,-931,-328,0
146692,170,-931,-328,0
146733,168,-930,-329,0
146774,168,-930,-328,0
146815,167,-931,-329,0
146856,167,-931,-328,0
146897,168,-930,-328,0
146938,169,-932,-328,0
146979,166,-930,-327,0
147021,167,-930,-329,0
147062,169,-932,-328,0
147103,169,-930,-329,0
147144,169,-931,-328,0
147185,167,-932,-328,0
147227,167,-930,-329,0
147268,167,-931,-329,0
147309,168,-930,-329,0
147350,170,-930,-328,0
147391,169,-930,-328,0
147433,169,-929,-328,0
147474,169,-930,-329,0
147515,168,-931,-329,0
147556,168,-931,-328,0
147597,168,-931,-329,0
147638,169,-930,-328,0
147679,168,-930,-328,0
147720,168,-930,-328,0
147761,171,-931,-329,0
147802,170,-932,-329,0
147843,169,-927,-328,0
147884,167,-926,-328,0
147925,169,-931,-326,0
147966,172,-933,-325,0
148007,169,-932,-328,0
148048,167,-933,-327,0
148089,165,-930,-328,0
148130,166,-930,-328,0
148171,168,-931,-328,0
148212,168,-928,-328,0
148253,171,-929,-328,0
148294,170,-929,-328,0
148335,169,-930,-328,0
148376,167,-932,-329,0
148417,167,-931,-328,0
148458,166,-930,-328,0
148499,168,-930,-328,0
148540,169,-932,-329,0
148581,168,-929,-328,0
148622,168,-930,-328,0
148663,167,-929,-328,0
148704,166,-929,-328,0
148745,168,-930,-328,0
148786,169,-931,-329,0
148827,170,-930,-328,0
148868,168,-930,-329,0
148909,168,-929,-329,0
148950,167,-932,-328,0
148992,168,-933,-325,0
149032,167,-932,-328,0
149073,168,-929,-329,0
149114,168,-928,-328,0
149155,169,-929,-328,0
149196,168,-929,-328,0
149237,167,-930,-328,0
149278,169,-931,-328,0
149319,168,-930,-328,0
149360,167,-932,-329,0
149401,169,-929,-328,0
149442,169,-930,-328,0
149483,168,-930,-328,0
149524,167,-929,-328,0
149565,169,-930,-328,0
149607,169,-932,-328,0
149647,169,-931,-328,0
149688,168,-930,-328,0
149730,167,-930,-328,0
149771,167,-930,-328,0
149812,167,-931,-328,0
149853,169,-930,-328,0
149894,168,-931,-329,0
149936,168,-931,-329,0
149978,168,-929,-329,0
150019,167,-930,-328,0
150060,168,-931,-328,0
150101,169,-931,-328,0
150142,168,-930,-329,0
150183,166,-928,-328,0
150224,167,-931,-328,0
150265,169,-929,-329,0
150306,169,-930,-328,0
150347,168,-931,-328,0
150388,166,-931,-328,0
150429,168,-929,-327,0
150470,169,-931,-328,0
150511,168,-931,-328,0
150552,166,-931,-328,0
150593,166,-929,-329,0
150693,173,-928,-328,0
150792,169,-932,-328,0
150893,168,-931,-328,0
150993,170,-931,-328,0
151090,167,-931,-328,0
151188,167,-930,-328,0
151285,169,-930,-328,0
151383,169,-929,-328,0
151481,168,-930,-328,0
151579,169,-931,-328,0
151679,167,-930,-328,0
151778,168,-930,-329,0
151877,167,-932,-328,0
151973,168,-930,-328,0
152074,167,-930,-328,0
152174,167,-930,-328,0
152275,168,-931,-328,0
152372,169,-931,-328,0
152469,167,-930,-328,0
152568,168,-930,-329,0
152666,168,-930,-329,0
152766,168,-930,-329,0
152864,168,-930,-328,0
152963,168,-929,-328,0
153064,166,-932,-328,0
153165,173,-928,-328,0
153264,160,-929,-328,0
153363,177,-933,-328,0
153457,165,-930,-328,0
153558,165,-932,-328,0
153654,172,-931,-328,0
153750,168,-931,-328,0
153849,167,-931,-328,0
153944,167,-929,-328,0
154042,170,-930,-328,0
154138,168,-931,-328,0
154238,169,-930,-328,0
154339,167,-930,-328,0
154436,170,-931,-328,0
154536,168,-932,-328,0
154634,169,-930,-328,0
154734,167,-929,-328,0
154832,169,-930,-328,0
154929,168,-930,-328,0
155027,167,-930,-328,0
155126,168,-930,-328,0
155225,167,-931,-328,0
155324,168,-930,-327,0
155423,168,-931,-328,0
155523,168,-932,-328,0
155620,167,-929,-329,0
155716,170,-931,-328,0
155814,167,-929,-328,0
155909,168,-931,-328,0
156006,168,-929,-328,0
156102,166,-932,-328,0
156201,168,-930,-329,0
156297,169,-928,-328,0
156394,167,-928,-328,0
156492,168,-932,-328,0
156590,170,-929,-329,0
156689,167,-930,-328,0
156788,170,-931,-328,0
156883,170,-929,-329,0
156983,167,-930,-328,0
157082,170,-933,-326,0
157179,169,-931,-328,0
157275,168,-932,-328,0
157370,169,-930,-328,0
157469,167,-930,-328,0
157569,168,-931,-328,0
157666,168,-931,-328,0
157767,168,-932,-328,0
157862,166,-931,-328,0
157964,167,-930,-328,0
158062,168,-930,-328,0
158160,167,-932,-328,0
158258,170,-929,-328,0
158357,167,-931,-328,0
158456,167,-931,-328,0
158555,170,-929,-328,0
158653,169,-931,-328,0
158750,167,-931,-329,0
158847,169,-930,-328,0
158946,169,-932,-328,0
159042,167,-932,-328,0
159143,168,-929,-328,0
159241,168,-929,-328,0
159338,168,-932,-328,0
159438,168,-931,-326,0
159536,167,-930,-329,0
159636,171,-932,-328,0
159736,168,-931,-328,0
159833,168,-932,-328,0
159930,169,-931,-328,0
160029,169,-931,-328,0
160128,169,-931,-328,0
160227,168,-932,-328,0
160326,168,-930,-329,0
160426,168,-931,-326,0
160522,168,-930,-329,0
160623,166,-929,-328,0
160723,168,-931,-328,0
160824,168,-930,-328,0
160922,167,-931,-329,0
161020,168,-932,-328,0
161115,168,-932,-328,0
161214,168,-931,-328,0
161311,167,-931,-327,0
161410,167,-930,-328,0
161510,167,-931,-328,0
161608,168,-930,-328,0
161706,168,-929,-329,0
161804,167,-932,-325,0
161904,167,-931,-328,0
162000,169,-930,-329,0
162100,168,-928,-328,0
162199,160,-934,-328,0
162297,177,-929,-329,0
162396,156,-924,-328,0
162494,173,-938,-324,0
162593,167,-932,-326,0
162690,165,-927,-328,0
162789,170,-931,-327,0
162888,168,-929,-328,0
162988,167,-931,-329,0
163084,167,-929,-328,0
163182,171,-936,-325,0
163281,168,-923,-328,0
163381,164,-928,-328,0
163479,163,-925,-328,0
163578,173,-924,-330,0
163678,167,-933,-328,0
163775,171,-930,-329,0
163874,167,-931,-328,0
163974,168,-928,-330,0
164073,172,-914,-333,0
164170,158,-940,-324,0
164267,168,-945,-315,0
164368,171,-926,-329,0
164466,168,-920,-329,0
164565,164,-938,-322,0
164663,172,-948,-316,0
164763,179,-927,-331,0
164861,175,-922,-334,0
164960,164,-931,-326,0
165060,181,-920,-333,0
165159,176,-922,-336,0
165258,170,-937,-329,0
165361,180,-925,-333,0
165458,186,-921,-342,0
165556,177,-916,-343,0
165656,168,-920,-335,0
165753,168,-938,-328,0
165852,167,-935,-328,0
165953,171,-929,-329,0
166049,167,-925,-330,0
166152,169,-927,-330,0
166253,171,-926,-330,0
166349,168,-927,-331,0
166449,172,-929,-328,0
166545,174,-928,-330,0
166643,168,-929,-329,0
166743,171,-928,-329,0
166839,169,-922,-335,0
166938,169,-927,-329,0
167037,175,-927,-334,0
167134,167,-925,-331,0
167234,169,-928,-329,0
167332,167,-929,-329,0
167433,170,-924,-331,0
167532,172,-925,-334,0
167630,168,-927,-330,0
167729,170,-923,-329,0
167828,170,-927,-332,0
167927,170,-929,-329,0
168027,170,-928,-329,0
168126,170,-925,-329,0
168225,170,-927,-330,0
168324,171,-929,-329,0
168423,171,-927,-329,0
168523,168,-926,-331,0
168622,171,-926,-333,0
168722,174,-924,-336,0
168821,175,-926,-337,0
168921,174,-932,-328,0
169019,174,-923,-341,0
169118,180,-918,-345,0
169216,181,-917,-345,0
169313,172,-923,-335,0
169412,173,-930,-330,0
169510,172,-922,-342,0
169608,175,-934,-328,0
169707,182,-920,-343,0
169806,178,-914,-355,0
169904,177,-910,-349,0
170002,172,-917,-357,0
170100,176,-921,-348,0
170199,176,-927,-340,0
170298,173,-926,-340,0
170396,168,-921,-344,0
170493,176,-921,-349,0
170594,177,-920,-349,0
170691,174,-920,-347,0
170792,174,-920,-347,0
170892,171,-925,-343,0
170989,176,-925,-343,0
171087,173,-922,-344,0
171186,172,-921,-347,0
171282,175,-920,-347,0
171383,174,-918,-351,0
171481,184,-924,-351,0
171580,165,-928,-330,0
171680,168,-927,-337,0
171778,177,-921,-345,0
171877,180,-918,-353,0
171975,174,-926,-343,0
172074,175,-921,-346,0
172174,175,-919,-354,0
172270,171,-919,-348,0
172367,164,-927,-337,0
172466,179,-919,-351,0
172566,172,-920,-349,0
172666,173,-924,-342,0
172766,176,-916,-354,0
172866,168,-927,-335,0
172964,177,-922,-347,0
173063,170,-923,-345,0
173160,170,-925,-342,0
173259,178,-918,-347,0
173358,171,-923,-344,0
173455,173,-920,-351,0
173552,172,-925,-343,0
173651,173,-923,-346,0
173748,172,-921,-346,0
173850,175,-921,-347,0
173946,170,-923,-343,0
174047,173,-921,-346,0
174145,173,-921,-347,0
174244,171,-923,-342,0
174341,175,-920,-348,0
174440,172,-920,-345,0
174537,177,-917,-350,0
174636,168,-923,-342,0
174735,174,-921,-347,0
174835,172,-924,-344,0
174933,171,-921,-346,0
175032,176,-919,-348,0
175131,167,-924,-344,0
175232,178,-921,-348,0
175331,176,-918,-350,0
175430,171,-928,-333,0
175526,159,-924,-338,0
175626,172,-919,-346,0
175726,177,-918,-348,0
175826,172,-921,-344,0
175924,169,-925,-338,0
176022,171,-923,-345,0
176120,175,-919,-347,0
176221,172,-925,-340,0
176319,172,-921,-349,0
176419,174,-923,-346,0
176517,173,-921,-347,0
176615,172,-922,-344,0
176715,171,-924,-343,0
176812,175,-922,-345,0
176914,170,-919,-346,0
177012,174,-922,-345,0
177112,173,-919,-347,0
177210,171,-923,-343,0
177308,171,-918,-347,0
177407,170,-924,-343,0
177505,173,-921,-344,0
177605,174,-924,-345,0
177709,172,-926,-342,0
177806,172,-923,-343,0
177905,176,-918,-348,0
178004,176,-922,-346,0
178104,168,-926,-341,0
178205,175,-920,-348,0
178304,170,-924,-342,0
178402,177,-920,-347,0
178502,171,-926,-344,0
178602,169,-922,-343,0
178701,178,-921,-348,0
178799,173,-920,-349,0
178897,173,-922,-347,0
178997,177,-922,-347,0
179094,173,-923,-350,0
179192,175,-925,-346,0
179291,177,-922,-343,0
179390,170,-925,-339,0
179489,179,-920,-348,0
179587,174,-922,-343,0
179689,175,-923,-344,0
179785,171,-924,-339,0
179883,177,-924,-346,0
179982,171,-926,-340,0
180078,174,-921,-345,0
180177,173,-921,-345,0
180273,174,-921,-346,0
180373,170,-921,-344,0
180470,173,-923,-343,0
180568,176,-920,-347,0
180668,171,-922,-345,0
180765,176,-925,-345,0
180865,175,-918,-348,0
180963,172,-925,-341,0
181060,175,-923,-347,0
181160,174,-920,-348,0
181261,172,-923,-344,0
181361,174,-922,-344,0
181458,175,-921,-347,0
181556,172,-922,-345,0
181657,172,-923,-345,0
181755,176,-920,-348,0
181854,175,-923,-346,0
181953,170,-926,-339,0
182051,172,-921,-347,0
182148,172,-923,-345,0
182249,174,-921,-347,0
182347,172,-924,-343,0
182445,176,-921,-348,0
182547,174,-923,-342,0
182648,176,-921,-346,0
182747,174,-921,-346,0
182846,173,-924,-344,0
182944,176,-921,-346,0
183044,174,-923,-345,0
183144,173,-921,-347,0
183243,174,-919,-348,0
183343,169,-925,-343,0
183443,176,-922,-342,0
183538,174,-923,-342,0
183637,172,-918,-347,0
183735,173,-927,-340,0
183833,179,-914,-354,0
183933,168,-921,-344,0
184030,172,-927,-337,0
184130,177,-923,-348,0
184228,171,-926,-337,0
184327,177,-920,-343,0
184424,174,-921,-345,0
184524,171,-923,-346,0
184620,171,-926,-340,0
184718,178,-919,-346,0
184816,170,-924,-343,0
184914,175,-925,-340,0
185012,171,-920,-346,0
185111,177,-918,-350,0
185205,169,-926,-338,0
185303,169,-925,-340,0
185400,175,-925,-344,0
185499,175,-917,-352,0
185598,176,-915,-357,0
185697,172,-925,-336,0
185796,173,-921,-346,0
185894,179,-920,-347,0
185993,174,-927,-338,0
186091,172,-924,-341,0
186189,173,-917,-349,0
186287,174,-921,-343,0
186383,176,-923,-341,0
186483,175,-921,-345,0
186581,181,-917,-354,0
186681,171,-930,-330,0
186781,170,-923,-342,0
186879,172,-924,-337,0
186976,183,-928,-342,0
187075,167,-923,-340,0
187175,179,-927,-339,0
187272,175,-918,-349,0
187372,181,-922,-344,0
187472,178,-920,-354,0
187571,178,-914,-350,0
187670,171,-921,-340,0
187767,169,-927,-334,0
187868,180,-918,-352,0
187964,179,-916,-348,0
188062,178,-918,-351,0
188163,170,-926,-332,0
188260,168,-926,-340,0
188359,183,-923,-344,0
188459,175,-923,-345,0
188556,173,-923,-343,0
188656,173,-919,-349,0
188752,173,-921,-343,0
188850,177,-921,-346,0
188950,170,-919,-346,0
189047,186,-924,-345,0
189148,173,-919,-356,0
189246,175,-920,-347,0
189344,185,-916,-359,0
189442,171,-922,-335,0
189539,164,-931,-331,0
189636,174,-919,-344,0
189736,173,-926,-340,0
189835,179,-919,-350,0
189935,170,-924,-341,0
190039,180,-920,-346,0
190137,174,-923,-343,0
190235,171,-922,-346,0
190334,173,-923,-341,0
190434,178,-919,-346,0
190530,173,-921,-342,0
190630,168,-925,-340,0
190728,175,-921,-346,0
190827,177,-921,-345,0
190925,170,-921,-342,0
191025,177,-921,-347,0
191124,173,-922,-346,0
191223,176,-922,-344,0
191321,177,-921,-344,0
191420,172,-926,-342,0
191518,177,-923,-344,0
191616,176,-919,-347,0
191713,174,-923,-343,0
191813,173,-920,-345,0
191910,173,-921,-347,0
192007,175,-925,-342,0
192105,177,-925,-343,0
192202,171,-922,-345,0
192303,177,-924,-345,0
192403,172,-924,-346,0
192503,174,-920,-347,0
192602,175,-922,-346,0
192700,174,-924,-343,0
192799,176,-922,-343,0
192899,174,-921,-345,0
192997,173,-922,-343,0
193095,177,-920,-349,0
193193,174,-924,-345,0
193291,167,-926,-336,0
193392,177,-919,-347,0
193491,175,-920,-345,0
193592,175,-917,-343,0
193691,174,-923,-338,0
193787,165,-931,-329,0
193887,177,-918,-347,0
193984,174,-926,-334,0
194083,171,-924,-341,0
194181,169,-924,-341,0
194278,177,-917,-350,0
194377,174,-922,-345,0
194475,173,-922,-343,0
194572,173,-920,-344,0
194670,174,-923,-345,0
194767,172,-924,-341,0
194864,176,-918,-348,0
194963,171,-927,-336,0
195061,177,-922,-345,0
195159,171,-923,-343,0
195257,180,-922,-348,0
195358,173,-926,-339,0
195456,171,-926,-341,0
195554,174,-922,-347,0
195654,169,-921,-342,0
195752,176,-924,-346,0
195849,179,-920,-347,0
195949,167,-928,-335,0
196047,177,-925,-346,0
196146,174,-919,-346,0
196245,168,-931,-333,0
196339,183,-922,-349,0
196437,174,-918,-343,0
196533,167,-926,-337,0
196632,179,-920,-347,0
196730,170,-923,-341,0
196831,175,-920,-343,0
196928,172,-918,-348,0
197028,168,-927,-333,0
197127,179,-922,-342,0
197227,173,-927,-341,0
197326,171,-923,-344,0
197424,173,-920,-346,0
197523,176,-922,-345,0
197621,174,-926,-342,0
197719,171,-924,-340,0
197818,176,-922,-346,0
197919,173,-921,-343,0
198017,174,-923,-344,0
198116,174,-924,-343,0
198213,174,-924,-343,0
198313,175,-923,-345,0
198412,174,-922,-344,0
198510,173,-925,-343,0
198609,173,-923,-345,0
198707,173,-922,-344,0
198804,174,-923,-344,0
198903,174,-920,-346,0
199001,172,-922,-343,0
199100,176,-925,-343,0
199197,173,-923,-344,0
199296,172,-924,-342,0
199394,176,-924,-343,0
199493,174,-923,-343,0
199592,174,-924,-343,0
199693,173,-920,-346,0
199793,173,-923,-341,0
199893,175,-922,-342,0
199991,173,-921,-345,0
200089,173,-923,-343,0
200188,174,-922,-342,0
200285,173,-923,-342,0
200383,174,-923,-339,0
200480,175,-925,-340,0
200579,174,-924,-343,0
200676,173,-924,-342,0
200776,175,-923,-341,0
200872,172,-923,-341,0
200970,175,-924,-343,0
201068,175,-921,-344,0
201167,172,-923,-343,0
201265,173,-921,-345,0
201365,175,-923,-343,0
201464,173,-923,-338,0
201562,174,-923,-344,0
201660,172,-923,-344,0
201759,173,-923,-344,0
201855,176,-921,-345,0
201955,172,-925,-341,0
202054,173,-922,-343,0
202156,175,-922,-343,0
202254,172,-923,-342,0
202357,175,-923,-343,0
202455,174,-922,-343,0
202554,172,-924,-339,0
202652,175,-922,-343,0
202748,174,-922,-343,0
202847,173,-924,-342,0
202944,172,-923,-343,0
203042,174,-924,-342,0
203139,173,-923,-340,0
203235,173,-923,-343,0
203334,172,-922,-343,0
203436,174,-922,-342,0
203535,175,-923,-341,0
203632,173,-923,-344,0
203730,173,-923,-342,0
203829,174,-921,-344,0
203927,173,-923,-340,0
204026,174,-923,-342,0
204125,173,-923,-342,0
204223,173,-924,-342,0
204322,174,-924,-343,0
204421,173,-924,-340,0
204519,173,-924,-341,0
204617,172,-924,-339,0
204714,174,-925,-342,0
204810,174,-923,-340,0
204909,173,-924,-342,0
205007,173,-925,-340,0
205107,175,-924,-342,0
205207,173,-924,-340,0
205305,174,-924,-342,0
205404,174,-923,-341,0
205501,174,-924,-340,0
205600,172,-924,-340,0
205699,173,-923,-341,0
205797,172,-924,-340,0
205894,173,-923,-342,0
205992,174,-923,-342,0
206091,172,-924,-341,0
206193,172,-923,-342,0
206292,172,-923,-342,0
206393,171,-924,-340,0
206490,174,-922,-341,0
206588,172,-922,-340,0
206687,172,-923,-342,0
206786,174,-923,-342,0
206887,172,-924,-341,0
206985,174,-923,-343,0
207085,175,-924,-342,0
207181,173,-926,-335,0
207280,171,-924,-340,0
207378,175,-923,-342,0
207475,173,-926,-340,0
207576,172,-924,-341,0
207673,174,-923,-341,0
207774,173,-925,-339,0
207873,175,-923,-342,0
207972,173,-924,-341,0
208070,171,-924,-337,0
208170,174,-925,-340,0
208270,172,-923,-340,0
208370,173,-924,-340,0
208467,173,-924,-339,0
208567,172,-922,-342,0
208665,173,-923,-340,0
208766,173,-925,-341,0
208863,173,-924,-339,0
208964,174,-924,-339,0
209061,173,-925,-341,0
209160,174,-924,-338,0
209260,172,-924,-338,0
209359,172,-924,-339,0
209457,174,-925,-341,0
209555,172,-925,-336,0
209654,174,-923,-343,0
209751,171,-924,-337,0
209848,174,-924,-337,0
209946,172,-922,-341,0
210044,172,-922,-342,0
210140,174,-924,-342,0
210237,174,-924,-338,0
210335,173,-925,-337,0
210436,171,-923,-341,0
210535,175,-922,-340,0
210633,171,-925,-340,0
210732,175,-924,-339,0
210830,172,-924,-339,0
210928,172,-925,-337,0
211029,173,-923,-339,0
211129,172,-925,-338,0
211228,173,-924,-340,0
211328,172,-924,-338,0
211423,174,-923,-339,0
211521,171,-923,-337,0
211619,173,-924,-341,0
211719,171,-923,-339,0
211818,172,-924,-335,0
211917,173,-925,-338,0
212016,171,-924,-339,0
212116,172,-925,-337,0
212214,173,-925,-338,0
212311,172,-925,-339,0
212407,174,-923,-337,0
212505,172,-924,-335,0
212602,172,-924,-336,0
212699,174,-923,-340,0
212797,173,-924,-340,0
212896,172,-926,-340,0
212995,172,-924,-339,0
213093,173,-924,-340,0
213193,170,-924,-338,0
213290,174,-925,-338,0
213389,171,-924,-338,0
213487,173,-924,-339,0
213587,173,-925,-340,0
213688,172,-925,-337,0
213788,173,-924,-339,0
213886,171,-924,-340,0
213984,174,-926,-337,0
214082,171,-925,-336,0
214181,173,-924,-336,0
214279,171,-925,-337,0
214375,172,-923,-339,0
214474,174,-924,-338,0
214574,172,-925,-338,0
214676,171,-924,-338,0
214775,173,-922,-339,0
214874,170,-925,-339,0
214973,172,-924,-341,0
215074,171,-924,-339,0
215172,172,-925,-338,0
215274,172,-924,-339,0
215375,171,-927,-338,0
215478,173,-924,-339,0
215580,172,-926,-339,0
215681,172,-925,-338,0
215782,174,-924,-338,0
215883,171,-925,-337,0
215985,173,-924,-337,0
216086,171,-924,-339,0
216186,171,-923,-340,0
216288,172,-924,-338,0
216389,171,-924,-338,0
216491,171,-923,-339,0
216589,171,-925,-339,0
216690,174,-924,-340,0
216789,171,-924,-341,0
216889,171,-925,-338,0
216987,174,-925,-338,0
217084,172,-924,-336,0
217182,172,-924,-339,0
217278,172,-925,-337,0
217375,175,-926,-337,0
217473,172,-924,-336,0
217572,175,-925,-337,0
217669,171,-924,-337,0
217767,172,-926,-335,0
217865,175,-924,-339,0
217966,172,-923,-338,0
218066,172,-924,-339,0
218166,172,-922,-339,0
218264,172,-927,-333,0
218363,171,-926,-332,0
218463,176,-922,-337,0
218560,170,-919,-346,0
218660,170,-922,-336,0
218756,180,-922,-344,0
218855,171,-924,-337,0
218952,169,-930,-329,0
219050,166,-930,-331,0
219149,168,-925,-337,0
219249,170,-927,-333,0
219348,170,-924,-334,0
219447,169,-923,-336,0
219545,168,-924,-336,0
219646,171,-928,-333,0
219746,173,-923,-340,0
219846,167,-920,-340,0
219945,170,-929,-330,0
220043,174,-927,-338,0
220141,168,-934,-333,0
220241,168,-923,-341,0
220339,171,-930,-331,0
220437,178,-923,-345,0
220535,169,-929,-333,0
220637,170,-924,-343,0
220736,178,-922,-348,0
220834,170,-926,-337,0
220933,169,-929,-333,0
221033,172,-921,-343,0
221133,172,-924,-336,0
221232,174,-930,-330,0
221332,176,-927,-331,0
221430,169,-925,-331,0
221527,175,-919,-346,0
221624,176,-925,-336,0
221722,163,-930,-331,0
221820,173,-922,-345,0
221918,173,-925,-336,0
222017,177,-925,-338,0
222115,171,-924,-337,0
222212,176,-926,-336,0
222311,171,-930,-332,0
222409,172,-924,-338,0
222507,171,-925,-337,0
222606,172,-923,-337,0
222704,172,-926,-334,0
222803,172,-923,-338,0
222903,174,-926,-331,0
223001,171,-924,-335,0
223101,174,-925,-338,0
223199,173,-926,-336,0
223300,172,-928,-335,0
223397,174,-927,-334,0
223497,172,-925,-334,0
223596,172,-925,-335,0
223695,171,-926,-335,0
223794,177,-923,-339,0
223892,170,-924,-336,0
223991,170,-923,-334,0
224090,175,-925,-334,0
224191,171,-923,-336,0
224288,173,-926,-336,0
224387,173,-924,-336,0
224486,171,-924,-336,0
224585,173,-924,-337,0
224681,171,-925,-331,0
224781,172,-924,-338,0
224878,171,-927,-333,0
224978,173,-925,-337,0
225077,171,-925,-337,0
225177,172,-924,-335,0
225275,172,-926,-337,0
225373,174,-926,-335,0
225471,173,-926,-337,0
225570,172,-926,-332,0
225670,172,-926,-333,0
225766,173,-923,-338,0
225866,172,-924,-338,0
225966,172,-925,-333,0
226066,173,-924,-334,0
226167,170,-924,-335,0
226265,174,-924,-337,0
226362,171,-924,-335,0
226459,173,-926,-337,0
226558,173,-926,-336,0
226656,173,-926,-334,0
226753,173,-925,-332,0
226853,172,-925,-333,0
226950,174,-927,-334,0
227053,172,-926,-334,0
227151,174,-925,-335,0
227249,173,-924,-333,0
227348,173,-923,-334,0
227444,172,-924,-335,0
227543,171,-925,-336,0
227639,172,-925,-335,0
227736,173,-926,-333,0
227835,172,-926,-335,0
227932,173,-926,-334,0
228030,171,-925,-334,0
228131,173,-926,-335,0
228230,173,-926,-335,0
228330,172,-925,-332,0
228426,172,-927,-334,0
228522,172,-925,-335,0
228618,172,-925,-333,0
228718,171,-925,-334,0
228817,174,-926,-333,0
228918,173,-926,-335,0
229013,171,-926,-334,0
229114,173,-927,-333,0
229211,172,-925,-335,0
229309,172,-926,-333,0
229408,173,-925,-335,0
229506,173,-926,-335,0
229605,172,-927,-334,0
229702,173,-926,-333,0
229803,172,-925,-335,0
229901,172,-926,-333,0
230000,175,-924,-334,0
230098,173,-925,-334,0
230196,173,-926,-331,0
230291,172,-924,-337,0
230389,174,-926,-333,0
230485,172,-926,-335,0
230582,173,-925,-333,0
230680,172,-925,-334,0
230778,172,-926,-334,0
230876,172,-926,-332,0
230976,172,-926,-335,0
231074,173,-925,-336,0
231174,171,-926,-333,0
231272,174,-923,-334,0
231369,171,-924,-336,0
231467,173,-925,-333,0
231565,172,-924,-333,0
231664,172,-926,-335,0
231761,173,-926,-334,0
231862,172,-926,-334,0
231960,172,-925,-333,0
232060,172,-927,-336,0
232161,172,-927,-335,0
232259,174,-928,-333,0
232358,172,-926,-335,0
232457,173,-926,-336,0
232556,172,-926,-338,0
232655,173,-925,-334,0
232755,172,-926,-335,0
232853,172,-925,-336,0
232951,173,-924,-336,0
233048,171,-925,-336,0
233145,174,-924,-336,0
233242,171,-926,-334,0
233341,174,-925,-334,0
233438,173,-926,-335,0
233536,172,-926,-332,0
233633,173,-926,-332,0
233732,172,-924,-336,0
233831,171,-924,-333,0
233930,174,-924,-336,0
234026,171,-924,-335,0
234125,173,-926,-332,0
234222,172,-925,-336,0
234322,172,-926,-334,0
234420,173,-926,-335,0
234519,173,-926,-334,0
234619,171,-926,-335,0
234715,173,-925,-334,0
234814,171,-926,-336,0
234912,172,-925,-336,0
235013,173,-925,-335,0
235114,172,-923,-336,0
235212,172,-926,-334,0
235310,172,-924,-335,0
235407,173,-925,-334,0
235507,171,-925,-334,0
235603,174,-925,-336,0
235699,172,-926,-332,0
235797,172,-925,-333,0
235894,173,-925,-333,0
235993,172,-925,-336,0
236092,174,-925,-333,0
236191,172,-925,-334,0
236289,173,-924,-337,0
236388,174,-927,-331,0
236488,173,-925,-333,0
236585,172,-925,-335,0
236683,172,-925,-334,0
236780,173,-926,-335,0
236877,173,-925,-335,0
236975,172,-927,-333,0
237074,173,-925,-335,0
237173,173,-926,-334,0
237274,173,-926,-335,0
237375,173,-927,-336,0
237475,175,-925,-337,0
237572,171,-925,-335,0
237670,173,-925,-336,0
237766,173,-925,-334,0
237864,172,-926,-334,0
237962,173,-927,-331,0
238061,172,-925,-335,0
238161,171,-926,-333,0
238259,171,-926,-335,0
238362,173,-927,-335,0
238461,171,-927,-333,0
238560,172,-926,-333,0
238658,173,-925,-332,0
238755,172,-925,-333,0
238851,171,-926,-333,0
238947,173,-927,-334,0
239044,173,-925,-334,0
239142,173,-924,-331,0
239241,171,-925,-332,0
239343,176,-925,-332,0
239443,172,-925,-332,0
239542,172,-925,-331,0
239641,172,-924,-335,0
239741,172,-926,-333,0
239839,173,-927,-333,0
239939,173,-924,-334,0
240036,173,-925,-330,0
240134,172,-923,-336,0
240232,173,-926,-335,0
240329,171,-927,-333,0
240426,173,-926,-332,0
240525,173,-925,-334,0
240622,172,-928,-331,0
240722,173,-928,-330,0
240820,173,-924,-331,0
240920,173,-927,-333,0
241015,173,-926,-335,0
241112,173,-927,-332,0
241210,172,-925,-336,0
241307,172,-926,-334,0
241408,174,-927,-335,0
241508,172,-925,-336,0
241608,171,-926,-330,0
241706,173,-924,-334,0
241806,174,-924,-335,0
241906,173,-923,-333,0
242003,173,-925,-333,0
242102,173,-924,-337,0
242200,171,-926,-334,0
242299,173,-926,-334,0
242398,174,-925,-334,0
242497,173,-925,-336,0
242597,173,-927,-331,0
242697,173,-926,-333,0
242794,174,-926,-335,0
242892,171,-927,-332,0
242989,174,-926,-335,0
243088,171,-926,-335,0
243185,172,-926,-332,0
243284,173,-924,-335,0
243382,172,-926,-330,0
243483,174,-924,-334,0
243578,173,-926,-333,0
243675,173,-926,-333,0
243775,171,-926,-332,0
243873,173,-925,-335,0
243969,171,-923,-334,0
244069,171,-926,-334,0
244167,172,-926,-332,0
244265,172,-927,-334,0
244363,173,-925,-333,0
244460,171,-925,-335,0
244557,173,-925,-331,0
244657,171,-924,-338,0
244756,172,-925,-333,0
244856,172,-923,-335,0
244954,172,-925,-336,0
245054,173,-926,-335,0
245151,172,-926,-333,0
245251,173,-926,-335,0
245348,172,-925,-334,0
245445,174,-924,-334,0
245545,172,-925,-334,0
245645,173,-926,-333,0
245744,173,-925,-334,0
245845,173,-926,-333,0
245942,173,-926,-333,0
246040,172,-926,-333,0
246141,172,-927,-332,0
246240,172,-926,-333,0
246341,173,-926,-333,0
246438,171,-926,-333,0
246535,175,-926,-332,0
246633,171,-924,-335,0
246731,173,-925,-334,0
246829,172,-926,-333,0
246930,171,-924,-333,0
247027,172,-925,-333,0
247126,171,-924,-336,0
247224,172,-926,-337,0
247324,171,-926,-334,0
247423,174,-925,-336,0
247523,171,-925,-333,0
247621,172,-924,-333,0
247721,173,-925,-334,0
247820,171,-925,-335,0
247918,173,-924,-334,0
248018,171,-926,-335,0
248114,171,-926,-332,0
248213,172,-925,-334,0
248310,173,-925,-334,0
248407,172,-927,-333,0
248506,172,-926,-335,0
248606,172,-925,-334,0
248703,174,-926,-333,0
248802,172,-927,-331,0
248900,173,-925,-333,0
248999,172,-928,-332,0
249096,172,-928,-331,0
249196,173,-925,-336,0
249294,172,-925,-333,0
249394,173,-926,-334,0
249493,172,-926,-331,0
249592,172,-927,-333,0
249690,172,-925,-332,0
249789,173,-924,-336,0
249887,170,-925,-334,0
249986,174,-925,-335,0
250085,171,-926,-333,0
250186,173,-926,-333,0
250285,172,-926,-333,0
250382,172,-925,-335,0
250479,173,-926,-335,0
250576,172,-926,-334,0
250675,173,-925,-335,0
250774,170,-925,-334,0
250873,173,-925,-334,0
250971,171,-923,-334,0
251070,172,-925,-335,0
251168,172,-926,-333,0
251267,172,-926,-333,0
251367,172,-925,-335,0
251467,173,-926,-332,0
251566,173,-925,-333,0
251670,173,-925,-333,0
251765,174,-926,-334,0
251862,172,-925,-335,0
251961,173,-926,-333,0
252061,174,-926,-333,0
252159,172,-926,-332,0
252259,173,-926,-333,0
252356,172,-925,-334,0
252455,173,-927,-333,0
252555,171,-927,-332,0
252653,174,-925,-334,0
252753,172,-924,-332,0
252852,173,-925,-333,0
252951,172,-924,-334,0
253053,171,-926,-333,0
253149,172,-925,-333,0
253249,173,-927,-335,0
253348,174,-928,-334,0
253447,172,-927,-332,0
253544,171,-927,-332,0
253642,174,-924,-336,0
253741,173,-925,-333,0
253841,171,-926,-331,0
253939,171,-925,-334,0
254038,171,-927,-332,0
254137,172,-925,-333,0
254237,171,-927,-333,0
254338,173,-926,-332,0
254436,174,-927,-334,0
254536,172,-926,-332,0
254633,173,-925,-332,0
254730,173,-925,-335,0
254828,171,-927,-333,0
254925,173,-925,-333,0
255023,173,-927,-333,0
255122,172,-927,-332,0
255218,173,-927,-333,0
255318,173,-925,-335,0
255416,172,-927,-332,0
255516,174,-926,-334,0
255614,172,-926,-334,0
255713,172,-928,-334,0
255811,172,-926,-334,0
255910,172,-926,-331,0
256007,172,-927,-334,0
256106,173,-927,-335,0
256204,171,-927,-332,0
256303,171,-927,-330,0
256399,173,-926,-333,0
256496,172,-925,-335,0
256594,172,-925,-332,0
256693,173,-925,-334,0
256791,169,-925,-334,0
256892,175,-927,-331,0
256989,170,-926,-333,0
257088,172,-924,-336,0
257185,172,-925,-332,0
257283,171,-926,-333,0
257381,174,-927,-334,0
257480,173,-927,-334,0
257579,173,-926,-332,0
257678,172,-924,-334,0
257776,174,-927,-330,0
257875,170,-925,-331,0
257971,175,-924,-337,0
258071,171,-926,-329,0
258169,173,-925,-336,0
258270,172,-925,-333,0
258365,173,-927,-331,0
258463,173,-925,-335,0
258562,172,-926,-334,0
258659,174,-927,-332,0
258758,173,-927,-331,0
258857,172,-926,-333,0
258955,172,-926,-335,0
259054,172,-926,-330,0
259154,172,-926,-335,0
259252,174,-926,-332,0
259351,170,-925,-334,0
259451,174,-925,-330,0
259552,174,-925,-330,0
259651,172,-925,-333,0
259748,171,-924,-336,0
259847,172,-930,-330,0
259944,173,-926,-336,0
260041,172,-924,-332,0
260140,172,-925,-333,0
260238,171,-928,-332,0
260336,172,-927,-329,0
260436,171,-926,-336,0
260534,174,-928,-330,0
260634,171,-925,-334,0
260730,173,-926,-335,0
260831,174,-926,-331,0
260929,168,-927,-334,0
261026,180,-926,-332,0
261127,174,-922,-339,0
261223,167,-934,-329,0
261321,170,-921,-336,0
261420,166,-920,-353,0
261518,174,-933,-328,0
261617,157,-928,-334,0
261715,182,-925,-335,0
261815,176,-932,-328,0
261912,176,-928,-338,0
262010,173,-921,-354,0
262108,173,-919,-355,0
262208,80,-871,-392,0
262306,154,-948,-346,0
262403,200,-927,-364,0
262502,160,-898,-377,0
262601,158,-884,-384,0
262702,173,-872,-386,0
262801,43,-757,-185,0
262899,357,-1031,-480,0
262996,-14,-817,-361,0
263094,162,-798,-435,0
263193,99,-893,-417,0
263294,66,-760,-454,0
263392,271,-870,-441,0
263490,198,-793,-369,0
263590,274,-906,-382,0
263690,406,-982,-395,0
263791,299,-860,-305,0
263888,231,-847,-354,0
263991,247,-815,-343,0
264088,399,-909,-359,0
264186,343,-947,-331,0
264284,341,-851,-357,0
264383,334,-983,-254,0
264480,221,-808,-262,0
264581,312,-1063,-112,0
264678,415,-981,347,0
264776,302,-954,753,0
264872,172,-725,588,0
264969,239,-498,677,4
265066,245,-475,654,4
265163,285,-580,630,4
265263,310,-490,568,4
265360,503,-460,618,4
265459,773,-79,765,4
265558,790,174,633,4
265657,582,381,483,4
265752,488,611,626,4
265852,578,534,600,4
265951,575,361,523,4
266049,589,669,422,4
266146,480,863,201,4
266243,310,863,136,4
266287,289,820,-107,4
266329,457,890,-28,4
266370,311,647,-170,4
266411,409,749,-378,4
266452,466,829,-242,4
266493,172,903,-418,4
266534,235,1038,-530,4
266575,208,960,-585,4
266616,23,758,-652,4
266657,-58,599,-662,4
266698,81,756,-856,4
266739,-156,668,-916,4
266780,-371,651,-788,4
266821,-202,606,-1234,4
266862,-428,688,-957,4
266903,-360,926,-888,4
266944,-266,915,-884,4
266985,-332,772,-797,4
267026,-260,768,-739,4
267067,-198,706,-629,4
267108,-649,756,-874,4
267149,-306,637,-572,4
267190,-343,665,-638,4
267231,-332,641,-559,4
267272,-377,595,-585,4
267313,-364,637,-667,4
267354,-458,636,-642,4
267395,-521,657,-600,4
267436,-569,650,-576,4
267477,-625,602,-516,4
267518,-671,538,-457,4
267560,-673,451,-401,4
267601,-631,434,-410,4
267642,-630,392,-458,4
267683,-632,408,-464,4
267725,-602,415,-471,4
267766,-596,391,-484,4
267807,-584,408,-561,4
267848,-510,449,-622,4
267889,-563,366,-566,4
267930,-601,444,-553,4
267972,-633,449,-602,4
268013,-655,487,-564,4
268054,-715,522,-558,4
268095,-755,557,-582,4
268137,-766,595,-537,4
268178,-786,591,-531,4
268219,-749,553,-516,4
268260,-713,557,-482,4
268301,-710,512,-464,4
268343,-703,561,-456,4
268384,-702,522,-437,4
268425,-709,553,-413,4
268466,-727,548,-437,4
268507,-692,550,-459,4
268549,-658,574,-461,4
268591,-650,562,-511,4
268632,-580,607,-550,4
268673,-573,607,-543,4
268714,-570,578,-572,4
268755,-563,573,-603,4
268796,-597,553,-608,4
268837,-657,518,-584,4
268878,-717,498,-492,4
268919,-751,484,-484,4
268960,-709,498,-505,4
269001,-698,505,-538,4
269042,-697,485,-570,4
269083,-698,461,-566,4
269124,-717,455,-594,4
269165,-744,499,-619,4
269206,-704,517,-524,4
269247,-635,461,-505,4
269288,-572,401,-582,4
269329,-559,340,-659,4
269370,-576,296,-692,4
269411,-656,319,-680,4
269452,-744,330,-611,4
269493,-748,289,-554,4
269534,-752,198,-547,4
269575,-755,251,-558,4
269616,-760,298,-541,4
269657,-763,337,-535,4
269698,-765,346,-544,4
269739,-753,348,-540,4
269780,-734,355,-556,4
269821,-715,391,-551,4
269862,-682,419,-567,4
269903,-696,400,-599,4
269944,-736,453,-638,4
269985,-741,509,-629,4
270026,-730,468,-667,4
270067,-721,437,-667,4
270108,-804,395,-598,4
270149,-902,391,-550,4
270190,-813,303,-449,4
270231,-725,153,-422,4
270272,-774,169,-448,4
270313,-857,386,-391,4
270354,-863,398,-382,4
270395,-823,293,-458,4
270440,-752,250,-457,4
270481,-728,305,-453,4
270522,-718,344,-474,4
270563,-689,353,-517,4
270604,-662,320,-582,4
270645,-660,302,-644,4
270687,-635,332,-680,4
270728,-675,358,-688,4
270769,-687,389,-660,4
270810,-825,400,-690,4
270852,-983,526,-907,4
270893,-823,603,-868,4
270934,-774,563,-649,4
270975,-746,492,-540,4
271016,-711,599,-635,4
271057,-758,763,-718,4
271099,-831,868,-781,4
271140,-768,896,-679,4
271181,-780,791,-570,4
271222,-822,714,-507,4
271264,-798,690,-388,4
271305,-737,618,-335,4
271346,-668,558,-360,4
271387,-612,450,-419,4
271428,-598,400,-432,4
271470,-600,338,-452,4
271511,-692,265,-606,4
271552,-954,277,-754,4
271593,-807,378,-678,4
271634,-673,399,-726,4
271675,-706,484,-836,4
271716,-685,660,-874,4
271757,-699,646,-735,4
271798,-691,608,-611,4
271839,-607,568,-570,4
271880,-604,565,-489,4
271921,-595,584,-454,4
271962,-587,590,-491,4
272003,-548,598,-522,4
272044,-530,548,-641,4
272085,-508,533,-828,4
272126,-537,549,-1004,4
272167,-582,619,-938,4
272208,-768,629,-915,4
272249,-756,678,-983,4
272290,-668,665,-890,4
272331,-767,516,-716,4
272372,-850,540,-615,8
272413,-925,760,-614,8
272454,-900,855,-616,8
272496,-773,814,-516,8
272537,-772,653,-394,8
272578,-765,546,-350,8
272619,-753,495,-296,8
272660,-750,475,-282,8
272702,-664,430,-298,8
272743,-617,414,-300,8
272784,-603,314,-339,8
272825,-662,244,-391,8
272866,-879,283,-586,8
272907,-1093,455,-668,8
272948,-822,485,-599,8
272989,-780,472,-835,8
273030,-750,517,-946,8
273071,-707,585,-755,8
273112,-789,518,-583,8
273153,-737,516,-553,9
273194,-659,569,-547,9
273235,-590,599,-576,9
273276,-535,601,-697,9
273317,-526,534,-742,9
273358,-548,460,-794,9
273399,-569,462,-819,9
273440,-613,520,-792,9
273481,-688,555,-724,9
273522,-767,656,-625,9
273564,-935,781,-536,9
273605,-999,862,-424,9
273646,-832,757,-264,9
273687,-769,570,-196,10
273728,-799,546,-93,10
273770,-817,679,-39,10
273811,-745,858,-29,10
273852,-709,926,-10,10
273893,-683,892,-75,10
273934,-632,844,-212,10
273975,-641,868,-307,10
274016,-669,858,-315,10
274057,-701,771,-359,10
274098,-816,723,-353,10
274139,-801,723,-319,10
274181,-891,652,-350,10
274222,-1067,563,-366,10
274263,-935,452,-266,10
274304,-862,253,-318,11
274345,-936,89,-465,11
274387,-1004,105,-455,11
274428,-1079,169,-373,11
274469,-962,187,-439,11
274510,-810,275,-512,11
274551,-765,363,-514,11
274593,-705,450,-541,11
274634,-640,496,-579,11
274675,-616,518,-617,11
274716,-610,522,-606,11
274757,-562,541,-625,11
274798,-515,622,-689,11
274839,-511,675,-715,11
274880,-780,723,-767,11
274921,-877,799,-779,11
274962,-783,796,-589,11
275003,-734,661,-459,11
275044,-741,710,-357,12
275085,-797,822,-219,12
275126,-750,910,-156,12
275167,-703,846,-203,12
275208,-636,813,-245,12
275249,-604,770,-265,12
275290,-595,755,-280,12
275331,-625,743,-254,12
275372,-639,727,-249,12
275413,-675,707,-266,12
275454,-731,608,-279,12
275495,-790,423,-289,12
275536,-974,417,-392,12
275580,-963,463,-427,12
275621,-815,491,-406,12
275662,-723,610,-597,12
275703,-681,681,-712,12
275744,-679,677,-665,12
275785,-689,600,-561,12
275826,-670,603,-502,12
275867,-593,658,-457,12
275908,-500,626,-465,12
275949,-468,590,-524,12
275990,-453,628,-539,12
276031,-490,624,-528,12
276073,-554,623,-599,12
276114,-599,693,-680,12
276155,-621,783,-704,12
276197,-831,779,-708,12
276238,-762,752,-686,12
276280,-652,698,-582,12
276321,-780,596,-462,13
276362,-773,558,-351,13
276403,-777,659,-351,13
276444,-809,652,-363,13
276485,-704,653,-299,13
276527,-673,478,-312,13
276568,-659,451,-331,13
276609,-635,465,-308,13
276650,-710,411,-303,13
276692,-755,433,-366,13
276733,-760,513,-425,13
276774,-876,559,-455,13
276815,-1155,660,-484,13
276856,-892,579,-270,13
276898,-657,419,-439,13
276939,-661,448,-634,13
276980,-720,596,-545,13
277021,-769,607,-472,13
277062,-664,547,-518,13
277103,-561,498,-534,13
277144,-536,555,-537,13
277185,-458,625,-625,13
277226,-417,618,-686,13
277267,-385,615,-708,13
277309,-409,621,-757,13
277350,-496,663,-814,13
277391,-617,697,-716,13
277432,-691,689,-690,13
277473,-692,643,-633,13
277514,-874,675,-727,13
277555,-662,699,-655,13
277596,-724,628,-542,14
277637,-962,487,-475,14
277678,-1010,538,-367,14
277719,-1027,563,-312,14
277760,-880,462,-172,14
277801,-846,330,-202,14
277843,-777,311,-318,14
277884,-735,393,-377,14
277925,-762,392,-397,14
277966,-782,412,-429,14
278007,-794,461,-491,14
278048,-777,528,-477,14
278089,-1044,646,-519,14
278130,-973,786,-329,14
278171,-891,770,-216,14
278212,-741,664,-303,14
278253,-752,671,-318,15
278294,-792,656,-275,15
278335,-779,656,-235,15
278376,-745,687,-226,15
278417,-687,714,-270,15
278459,-621,736,-364,15
278500,-531,725,-516,15
278541,-491,696,-602,15
278582,-462,700,-684,15
278623,-486,672,-731,15
278664,-557,587,-740,15
278705,-618,475,-717,15
278746,-665,357,-679,15
278788,-723,350,-693,15
278829,-872,527,-846,15
278870,-694,525,-683,15
278911,-698,327,-509,16
278952,-821,308,-523,16
278994,-823,591,-575,16
279035,-862,755,-557,16
279076,-765,654,-512,16
279117,-725,518,-505,16
279158,-692,403,-551,16
279200,-670,412,-543,16
279241,-642,449,-514,16
279282,-637,428,-523,16
279323,-641,409,-517,16
279364,-659,404,-518,16
279406,-698,447,-600,16
279447,-735,459,-619,16
279488,-889,427,-613,16
279529,-985,558,-486,16
279570,-849,579,-403,16
279612,-653,512,-448,16
279653,-702,476,-428,16
279694,-752,533,-339,16
279735,-762,540,-308,16
279776,-695,510,-335,16
279818,-577,504,-397,16
279859,-588,512,-467,16
279900,-590,572,-521,16
279941,-580,622,-563,16
279982,-517,619,-598,16
280024,-486,538,-680,16
280065,-523,541,-776,16
280106,-574,644,-858,16
280147,-765,761,-937,16
280188,-878,844,-961,16
280229,-694,723,-726,16
280270,-657,503,-587,17
280311,-848,516,-529,17
280352,-924,722,-411,17
280393,-864,838,-199,17
280434,-749,768,-233,17
280475,-680,654,-285,17
280516,-668,628,-249,17
280557,-649,575,-264,17
280598,-642,531,-285,17
280639,-686,544,-281,17
280680,-794,481,-244,17
280724,-919,481,-291,17
280765,-927,483,-368,17
280806,-1013,509,-506,17
280847,-1037,545,-474,17
280888,-769,482,-385,17
280929,-739,546,-571,18
280970,-693,617,-715,18
281011,-732,533,-602,18
281052,-730,429,-492,18
281093,-672,423,-453,18
281134,-654,445,-381,18
281175,-607,473,-391,18
281216,-542,480,-458,18
281257,-527,458,-522,18
281298,-571,468,-589,18
281339,-660,551,-696,18
281380,-679,675,-756,18
281421,-652,646,-694,18
281462,-901,613,-781,18
281503,-760,763,-884,18
281544,-729,717,-690,18
281585,-908,534,-604,18
281626,-960,550,-517,19
281667,-963,572,-436,19
281709,-848,500,-299,19
281750,-757,346,-293,19
281791,-705,317,-356,19
281832,-653,416,-406,19
281873,-686,427,-375,19
281915,-701,385,-371,19
281957,-709,330,-403,19
281998,-781,319,-426,19
282039,-833,381,-523,19
282080,-1031,559,-610,19
282122,-1063,750,-468,19
282163,-645,665,-347,19
282204,-691,651,-520,20
282245,-784,732,-473,20
282286,-796,740,-354,20
282328,-763,573,-438,20
282370,-630,594,-490,20
282411,-558,606,-489,20
282452,-463,579,-541,20
282493,-385,601,-584,20
282535,-359,593,-621,20
282577,-392,558,-654,20
282618,-511,569,-808,20
282659,-638,651,-911,20
282700,-775,661,-894,20
282741,-899,701,-990,20
282783,-661,706,-859,20
282824,-783,442,-652,20
282865,-947,398,-591,21
282906,-976,678,-563,21
282947,-917,733,-446,21
282988,-825,611,-401,21
283029,-749,507,-410,21
283070,-694,488,-413,21
283111,-642,404,-413,21
283152,-597,377,-410,21
283193,-587,309,-390,21
283234,-605,258,-400,21
283275,-654,312,-437,21
283316,-739,463,-502,21
283357,-1009,634,-562,21
283398,-1090,800,-460,21
283439,-694,854,-479,21
283480,-704,786,-744,21
283521,-710,856,-560,21
283562,-681,753,-393,21
283603,-629,586,-426,22
283644,-565,604,-326,22
283685,-572,676,-276,22
283726,-513,690,-385,22
283767,-402,691,-505,22
283808,-356,691,-579,22
283849,-381,663,-754,22
283890,-432,667,-897,22
283931,-534,723,-907,22
283972,-826,705,-927,22
284013,-740,767,-959,22
284054,-665,623,-737,22
284095,-816,502,-615,23
284136,-898,644,-536,23
284177,-874,713,-470,23
284218,-748,654,-360,23
284259,-691,546,-357,23
284300,-652,509,-381,23
284341,-652,495,-344,23
284382,-666,431,-318,23
284423,-697,371,-339,23
284464,-694,354,-390,23
284505,-754,326,-421,23
284546,-796,374,-470,23
284587,-919,511,-533,23
284629,-1059,670,-504,23
284670,-872,812,-375,23
284711,-752,868,-468,23
284752,-699,887,-538,23
284793,-702,814,-412,23
284835,-721,662,-366,24
284876,-616,583,-367,24
284917,-577,578,-364,24
284958,-542,600,-397,24
284999,-517,613,-442,24
285040,-512,607,-487,24
285081,-542,559,-514,24
285122,-619,536,-540,24
285163,-737,568,-566,24
285204,-827,542,-523,24
285245,-1078,602,-498,24
285286,-1000,652,-523,24
285327,-785,407,-354,24
285368,-896,132,-328,25
285409,-957,297,-363,25
285450,-1036,486,-74,25
285491,-1033,398,126,25
285532,-870,334,5,25
285573,-753,458,-46,25
285614,-706,542,-79,25
285655,-701,558,-111,25
285696,-708,612,-172,25
285737,-718,630,-239,25
285778,-707,589,-327,25
285819,-759,586,-419,25
285864,-863,582,-335,25
285905,-1038,554,-232,25
285946,-1144,612,-46,25
285987,-1020,512,66,25
286028,-817,218,-103,25
286069,-901,190,-86,26
286110,-952,429,15,26
286151,-906,483,-84,26
286192,-788,451,-165,26
286233,-729,443,-229,26
286274,-692,503,-277,26
286315,-737,535,-270,26
286356,-752,493,-278,26
286397,-806,377,-243,26
286438,-820,347,-240,26
286479,-837,402,-226,26
286520,-909,410,-108,26
286561,-954,511,-28,26
286603,-1033,617,-76,26
286644,-1041,719,20,26
286685,-839,643,177,26
286726,-754,391,153,27
286767,-766,474,157,27
286808,-806,717,177,27
286849,-769,797,258,27
286890,-726,644,171,27
286931,-714,464,126,27
286972,-628,556,46,27
287013,-609,593,14,27
287054,-615,647,47,27
287095,-621,681,93,27
287136,-640,660,103,27
287177,-679,700,102,27
287218,-694,736,73,27
287259,-813,779,5,27
287300,-1007,908,33,27
287341,-1309,969,190,27
287382,-941,656,131,27
287423,-606,91,-388,28
287464,-742,117,-243,28
287505,-1191,446,422,28
287547,-1053,325,243,28
287588,-854,245,36,28
287629,-749,319,-50,28
287670,-744,392,-110,28
287711,-727,483,-185,28
287753,-714,507,-262,28
287794,-708,444,-326,28
287835,-696,440,-403,28
287876,-725,484,-486,28
287917,-827,523,-512,28
287958,-856,532,-409,28
287999,-1119,611,-450,28
288040,-899,722,-434,28
288081,-838,535,-259,28
288122,-922,422,-306,29
288163,-930,611,-241,29
288204,-920,615,-95,29
288245,-784,519,-113,29
288286,-727,487,-187,29
288327,-719,504,-187,29
288368,-721,511,-200,29
288409,-761,476,-186,29
288450,-812,461,-204,29
288491,-885,441,-206,29
288532,-995,491,-273,29
288573,-994,588,-326,29
288614,-1082,730,-343,29
288655,-1069,815,-260,29
288696,-676,647,-171,29
288737,-651,591,-313,30
288778,-733,659,-189,30
288819,-761,656,-7,30
288860,-777,496,-81,30
288901,-643,526,-202,30
288942,-612,598,-230,30
288983,-604,619,-311,30
289024,-597,643,-382,30
289065,-588,619,-410,30
289106,-606,513,-487,30
289147,-679,555,-584,30
289188,-753,675,-599,30
289229,-870,683,-592,30
289270,-960,760,-751,30
289311,-673,725,-714,30
289352,-787,475,-466,30
289393,-984,383,-419,31
289434,-944,668,-357,31
289475,-900,772,-231,31
289516,-807,684,-139,31
289557,-752,546,-161,31
289598,-733,471,-172,31
289639,-726,452,-150,31
289680,-731,472,-184,31
289721,-790,456,-172,31
289763,-893,438,-147,31
289804,-943,479,-223,31
289845,-932,541,-349,31
289886,-1101,730,-400,31
289927,-988,853,-241,31
289968,-749,767,-288,31
290009,-709,663,-511,32
290050,-730,653,-423,32
290091,-783,556,-232,32
290132,-687,505,-257,32
290173,-610,564,-261,32
290214,-545,606,-333,32
290256,-493,588,-412,32
290297,-473,599,-460,32
290338,-533,559,-488,32
290379,-650,560,-545,32
290420,-753,627,-616,32
290463,-788,636,-627,32
290504,-925,575,-663,32
290545,-933,658,-793,32
290586,-684,616,-699,32
290627,-854,484,-515,33
290669,-978,513,-388,33
290710,-911,751,-293,33
290751,-869,743,-163,33
290792,-768,603,-179,33
290833,-717,552,-218,33
290874,-687,521,-235,33
290915,-698,481,-224,33
290956,-745,456,-216,33
291000,-806,374,-221,33
291041,-847,340,-277,33
291082,-871,448,-385,33
291123,-1008,551,-429,33
291164,-1250,821,-397,33
291205,-770,920,-238,33
291246,-648,741,-402,33
291287,-718,624,-390,34
291328,-664,754,-166,34
291369,-705,672,-113,34
291410,-623,614,-149,34
291451,-617,650,-131,34
291492,-571,661,-247,34
291533,-522,654,-358,34
291574,-499,629,-426,34
291615,-563,618,-495,34
291656,-666,630,-628,34
291697,-762,671,-747,34
291738,-752,670,-871,34
291779,-932,633,-952,34
291820,-744,670,-937,34
291861,-718,507,-605,34
291902,-924,428,-486,35
291943,-936,729,-492,35
291984,-945,893,-383,35
292025,-898,822,-200,35
292066,-827,684,-181,35
292107,-799,579,-169,35
292148,-802,519,-123,35
292189,-728,413,-186,35
292231,-707,369,-260,35
292272,-752,293,-253,35
292313,-802,286,-267,35
292354,-863,377,-318,35
292395,-1025,595,-343,35
292436,-1178,824,-280,35
292477,-886,914,-240,35
292518,-706,873,-357,35
292559,-676,904,-376,36
292600,-614,877,-317,36
292641,-642,724,-319,36
292682,-570,666,-332,36
292723,-580,663,-304,36
292764,-569,654,-339,36
292805,-565,663,-411,36
292846,-528,663,-506,36
292887,-539,621,-570,36
292928,-630,579,-682,36
292970,-702,631,-804,36
293010,-756,641,-822,36
293051,-1037,719,-943,36
293092,-780,741,-801,36
293133,-808,510,-529,36
293175,-925,423,-474,37
293216,-915,769,-473,37
293257,-841,884,-386,37
293298,-803,776,-329,37
293339,-817,545,-282,37
293381,-770,465,-283,37
293422,-591,534,-290,37
293464,-493,465,-345,37
293505,-474,358,-404,37
293546,-538,357,-422,37
293588,-613,481,-438,37
293629,-744,531,-474,37
293670,-995,649,-511,37
293711,-854,796,-374,37
293752,-385,781,-819,37
293793,-414,842,-1030,37
293834,-237,1181,-876,37
293875,-98,1063,-856,37
293916,-226,751,-712,37
293957,-231,751,-509,38
293998,-335,581,-400,38
294039,-346,409,-394,38
294080,-270,347,-452,38
294121,-199,377,-468,38
294162,-205,411,-487,38
294203,-289,520,-578,38
294244,-433,664,-636,38
294286,-463,947,-774,38
294327,-461,1029,-860,38
294368,-937,1083,-849,38
294409,-445,1176,-695,38
294451,-607,732,-535,38
294492,-585,591,-440,39
294533,-606,640,-487,39
294574,-594,757,-464,39
294615,-632,749,-383,39
294657,-670,663,-367,39
294698,-622,582,-405,39
294739,-588,549,-426,39
294780,-574,498,-418,39
294821,-573,485,-426,39
294862,-542,531,-405,39
294904,-516,547,-403,39
294945,-628,487,-432,39
294986,-757,556,-393,39
295027,-784,680,-389,39
295069,-990,786,-403,39
295110,-992,863,-341,39
295151,-599,855,-245,39
295192,-764,790,-313,40
295233,-762,743,-220,40
295275,-763,602,-171,40
295316,-703,582,-162,40
295357,-634,631,-152,40
295398,-619,684,-236,40
295439,-576,767,-340,40
295481,-489,807,-435,40
295523,-438,802,-546,40
295564,-462,801,-730,40
295605,-519,811,-897,40
295646,-596,858,-964,40
295688,-716,822,-1001,40
295730,-571,788,-986,40
295771,-650,541,-768,40
295812,-739,420,-673,41
295853,-852,735,-661,41
295895,-972,864,-495,41
295937,-933,921,-319,41
295978,-791,742,-354,41
296019,-719,589,-346,41
296060,-681,497,-298,41
296101,-648,470,-315,41
296148,-645,341,-353,41
296189,-669,295,-338,41
296230,-740,302,-314,41
296271,-764,412,-398,41
296313,-824,508,-498,41
296355,-1086,734,-515,41
296396,-1068,899,-434,41
296437,-702,935,-403,41
296478,-635,896,-507,41
296520,-606,869,-488,41
296562,-628,765,-345,42
296603,-641,660,-309,42
296644,-563,632,-215,42
296685,-532,648,-255,42
296726,-503,677,-380,42
296767,-442,721,-518,42
296808,-364,695,-740,42
296849,-408,638,-885,42
296890,-597,772,-941,42
296931,-739,780,-820,42
296972,-980,735,-866,42
297013,-736,815,-755,42
297054,-792,712,-515,42
297095,-1026,576,-400,43
297136,-1055,662,-341,43
297177,-976,786,-285,43
297218,-825,715,-270,43
297259,-750,540,-255,43
297300,-683,416,-294,43
297341,-660,355,-305,43
297382,-638,347,-338,43
297423,-644,345,-349,43
297464,-721,337,-336,43
297505,-777,433,-363,43
297546,-827,584,-442,43
297587,-1077,775,-463,43
297628,-1133,958,-307,43
297669,-721,920,-273,43
297710,-693,867,-437,43
297751,-714,796,-365,44
297793,-696,693,-328,44
297834,-619,641,-309,44
297875,-571,672,-243,44
297916,-526,726,-265,44
297957,-447,734,-344,44
297998,-391,752,-444,44
298039,-376,729,-551,44
298080,-444,689,-617,44
298121,-554,699,-788,44
298162,-583,757,-878,44
298204,-798,792,-923,44
298245,-673,811,-954,44
298286,-594,742,-722,44
298327,-845,591,-593,45
298368,-920,750,-552,45
298410,-946,821,-419,45
298451,-874,750,-345,45
298492,-767,568,-350,45
298533,-775,401,-330,45
298574,-740,392,-310,45
298615,-715,350,-328,45
298656,-684,358,-339,45
298697,-680,332,-339,45
298738,-736,347,-396,45
298779,-760,495,-491,45
298820,-916,619,-482,45
298861,-1085,819,-360,45
298902,-751,846,-256,45
298943,-720,864,-469,45
298984,-698,934,-420,45
299025,-651,860,-322,45
299066,-622,636,-335,46
299107,-593,636,-248,46
299148,-554,710,-214,46
299189,-490,714,-319,46
299230,-420,756,-405,46
299271,-450,763,-476,46
299312,-445,738,-589,46
299353,-519,743,-683,46
299394,-583,759,-725,46
299435,-658,733,-678,46
299476,-793,784,-724,46
299517,-640,833,-641,46
299558,-695,646,-523,46
299599,-942,526,-511,47
299640,-1006,609,-387,47
299681,-1007,552,-178,47
299722,-924,367,-212,47
299763,-885,240,-257,47
299804,-842,276,-241,47
299845,-844,332,-229,47
299886,-877,413,-243,47
299927,-889,545,-255,47
299968,-845,620,-250,47
300009,-829,646,-219,47
300050,-886,719,-216,47
300091,-994,793,-177,47
300132,-776,785,-89,47
300173,-623,648,-285,47
300214,-587,587,-472,47
300255,-553,624,-490,47
300296,-590,689,-362,47
300337,-562,772,-364,47
300378,-515,762,-438,47
300419,-478,765,-479,47
300460,-429,751,-530,47
300502,-417,682,-613,47
300543,-424,670,-683,47
300584,-477,708,-686,47
300625,-606,745,-683,47
300666,-681,739,-751,47
300709,-645,738,-751,47
300750,-549,709,-752,47
300791,-585,678,-732,47
300832,-649,708,-566,48
300873,-745,745,-497,48
300914,-805,770,-431,48
300955,-753,788,-372,48
300997,-717,732,-310,48
301038,-633,617,-328,48
301079,-584,550,-328,48
301120,-525,521,-323,48
301161,-513,480,-353,48
301202,-507,483,-398,48
301243,-538,538,-385,48
301288,-556,594,-426,48
301330,-654,625,-489,48
301371,-791,706,-543,48
301412,-1011,820,-508,48
301453,-796,818,-338,48
301494,-570,653,-407,48
301535,-548,676,-545,49
301576,-561,756,-417,49
301617,-712,622,-323,49
301658,-691,570,-316,49
301699,-647,612,-298,49
301740,-579,653,-412,49
301781,-528,689,-521,49
301822,-461,697,-624,49
301863,-454,669,-663,49
301904,-460,650,-675,49
301945,-492,702,-646,49
301986,-575,850,-590,49
302027,-654,931,-509,49
302068,-854,959,-489,49
302109,-791,991,-393,49
302150,-654,862,-303,49
302191,-768,723,-242,50
302232,-744,755,-251,50
302273,-732,873,-329,50
302314,-673,963,-327,50
302355,-672,1016,-234,50
302396,-731,946,-177,50
302437,-729,878,-110,50
302478,-723,810,-42,50
302519,-710,766,-26,50
302560,-688,697,-48,50
302601,-684,623,-71,50
302642,-754,480,-172,50
302683,-771,341,-332,50
302725,-933,334,-492,50
302766,-1069,398,-325,50
302807,-780,454,-451,50
302848,-787,455,-719,50
302889,-753,634,-814,50
302930,-799,805,-630,50
302971,-763,779,-512,50
303012,-639,664,-596,50
303053,-600,630,-567,51
303094,-620,595,-434,51
303135,-564,633,-449,51
303176,-509,660,-461,51
303217,-575,547,-469,51
303258,-558,570,-521,51
303299,-616,854,-407,51
303341,-735,837,-329,51
303382,-1045,878,-421,51
303423,-854,873,-299,51
303465,-735,835,-240,51
303506,-818,736,-291,52
303547,-883,835,-259,52
303588,-931,922,-154,52
303630,-919,900,-133,52
303671,-645,639,-134,52
303712,-679,535,-125,52
303753,-629,566,-111,52
303794,-680,536,-123,52
303835,-706,440,-148,52
303876,-860,328,-189,52
303917,-826,296,-147,52
303959,-1209,489,-333,52
304000,-1174,478,-529,52
304041,-828,682,-642,52
304082,-740,778,-484,52
304123,-880,749,-323,52
304164,-808,809,-472,52
304205,-520,876,-450,52
304246,-489,708,-303,53
304287,-490,646,-321,53
304328,-486,681,-326,53
304370,-477,705,-342,53
304411,-423,759,-428,53
304452,-364,808,-615,53
304493,-503,812,-703,53
304534,-708,821,-645,53
304575,-999,737,-636,53
304616,-741,1050,-859,53
304657,-747,636,-681,53
304698,-839,558,-506,54
304739,-699,989,-449,54
304780,-894,1130,-305,54
304821,-881,922,-152,54
304862,-827,677,-181,54
304903,-719,617,-239,54
304944,-721,521,-184,54
304985,-687,475,-203,54
305026,-647,482,-256,54
305067,-656,433,-292,54
305108,-735,322,-328,54
305149,-752,320,-369,54
305191,-863,520,-568,54
305232,-1010,671,-532,54
305273,-886,774,-418,54
305314,-727,803,-481,54
305355,-631,918,-515,54
305396,-659,897,-465,54
305437,-673,735,-443,54
305478,-617,622,-369,55
305519,-586,677,-275,55
305560,-515,726,-286,55
305601,-460,746,-360,55
305642,-418,755,-403,55
305683,-390,768,-474,55
305724,-363,780,-593,55
305765,-441,810,-673,55
305806,-498,901,-639,55
305847,-695,748,-630,55
305888,-928,766,-708,55
305929,-668,854,-513,55
305970,-814,663,-388,55
306011,-984,536,-461,56
306052,-940,724,-398,56
306093,-884,793,-284,56
306134,-725,614,-307,56
306175,-641,442,-344,56
306216,-617,395,-307,56
306257,-627,394,-273,56
306298,-645,518,-294,56
306339,-703,623,-256,56
306381,-731,693,-250,56
306426,-727,706,-272,56
306467,-688,679,-303,56
306508,-738,628,-345,56
306550,-982,598,-411,56
306591,-964,635,-246,56
306632,-1016,740,-71,56
306673,-908,802,0,56
306714,-827,762,-102,56
306755,-852,697,-87,57
306796,-836,712,-68,57
306837,-771,755,-85,57
306878,-717,778,-100,57
306919,-610,792,-175,57
306960,-602,761,-263,57
307001,-576,790,-347,57
307042,-573,817,-367,57
307083,-627,743,-430,57
307124,-533,776,-625,57
307165,-448,689,-821,57
307206,-477,609,-823,57
307247,-464,575,-942,57
307288,-705,749,-1108,57
307329,-695,815,-860,57
307370,-632,655,-639,57
307411,-614,578,-669,58
307452,-592,716,-619,58
307493,-746,766,-543,58
307534,-760,792,-478,58
307575,-653,765,-386,58
307616,-604,694,-366,58
307657,-541,630,-379,58
307698,-536,582,-372,58
307739,-487,562,-392,58
307780,-475,544,-395,58
307821,-496,537,-404,58
307862,-557,498,-407,58
307903,-614,576,-481,58
307944,-725,640,-550,58
307985,-982,740,-531,58
308026,-864,712,-306,58
308067,-723,634,-412,58
308108,-693,792,-501,58
308149,-593,791,-483,58
308190,-711,612,-414,58
308231,-645,639,-403,58
308272,-580,649,-301,58
308313,-558,632,-357,58
308354,-496,746,-411,58
308395,-408,783,-474,58
308436,-412,730,-533,58
308477,-408,689,-617,58
308518,-478,757,-716,58
308559,-586,806,-726,58
308600,-683,787,-672,58
308641,-825,842,-691,58
308682,-706,870,-615,58
308723,-682,731,-520,58
308764,-723,705,-484,59
308805,-767,794,-464,59
308846,-822,798,-403,59
308887,-710,755,-318,59
308928,-658,646,-295,59
308969,-615,595,-316,59
309010,-567,572,-284,59
309052,-552,520,-308,59
309093,-574,452,-329,59
309134,-618,422,-354,59
309175,-697,471,-413,59
309216,-707,535,-507,59
309258,-902,620,-613,59
309299,-922,626,-393,59
309340,-671,621,-445,59
309381,-598,708,-624,59
309422,-628,790,-574,59
309463,-677,747,-439,59
309504,-620,623,-434,59
309545,-560,613,-434,59
309586,-551,647,-378,59
309627,-524,700,-433,59
309668,-442,748,-461,59
309709,-387,733,-536,59
309750,-404,746,-614,59
309791,-489,870,-652,59
309832,-559,970,-614,59
309873,-587,918,-646,59
309914,-702,965,-732,59
309955,-494,1010,-615,59
309996,-614,824,-529,59
310037,-787,796,-520,60
310078,-889,874,-379,60
310119,-969,795,-328,60
310160,-768,716,-310,60
310201,-724,602,-287,60
310242,-643,608,-299,60
310283,-611,599,-279,60
310324,-585,521,-276,60
310365,-522,505,-313,60
310406,-529,466,-395,60
310447,-619,503,-425,60
310488,-626,581,-447,60
310529,-843,666,-563,60
310570,-832,705,-454,60
310611,-552,570,-468,60
310652,-605,653,-625,60
310693,-633,838,-443,60
310734,-691,741,-375,60
310775,-703,584,-434,60
310816,-628,648,-326,60
310857,-578,669,-351,60
310898,-541,705,-408,60
310939,-465,772,-440,60
310980,-424,788,-511,60
311021,-418,803,-561,60
311062,-476,840,-590,60
311103,-506,911,-637,60
311144,-505,917,-593,60
311185,-770,874,-634,60
311226,-677,928,-634,60
311267,-621,824,-505,60
311309,-769,726,-481,61
311350,-860,745,-403,61
311391,-867,798,-360,61
311432,-804,724,-356,61
311473,-754,614,-328,61
311514,-760,502,-330,61
311563,-756,465,-277,61
311604,-757,455,-257,61
311645,-754,433,-339,61
311686,-783,413,-369,61
311727,-777,407,-384,61
311768,-731,382,-429,61
311809,-907,417,-585,61
311850,-1114,574,-473,61
311891,-1047,665,-254,61
311932,-864,716,-337,61
311973,-756,771,-373,61
312014,-776,814,-287,62
312055,-821,770,-233,62
312096,-768,767,-172,62
312137,-728,774,-147,62
312178,-690,748,-143,62
312219,-633,751,-155,62
312260,-609,744,-180,62
312301,-597,770,-196,62
312342,-607,783,-185,62
312384,-652,775,-194,62
312425,-640,822,-216,62
312466,-608,814,-360,62
312507,-574,843,-490,62
312548,-669,909,-773,62
312589,-554,929,-954,62
312630,-532,723,-821,62
312671,-565,633,-812,63
312712,-576,722,-822,63
312753,-690,775,-677,63
312794,-731,761,-548,63
312835,-744,586,-482,63
312876,-718,516,-491,63
312917,-668,658,-486,63
312958,-689,698,-432,63
312999,-635,710,-391,63
313040,-591,639,-451,63
313081,-590,530,-453,63
313122,-639,445,-443,63
313163,-697,407,-475,63
313204,-878,548,-580,63
313245,-947,603,-415,63
313286,-895,571,-353,63
313327,-911,772,-594,63
313368,-856,761,-474,63
313409,-809,578,-421,63
313450,-732,474,-352,64
313491,-635,573,-184,64
313532,-592,590,-197,64
313573,-539,610,-264,64
313614,-454,682,-269,64
313655,-409,740,-326,64
313696,-403,782,-420,64
313737,-444,884,-535,64
313778,-517,1004,-550,64
313819,-774,1097,-659,64
313860,-479,1100,-742,64
313901,-438,1011,-615,64
313942,-664,765,-617,64
313983,-708,743,-557,65
314024,-741,809,-477,65
314065,-655,863,-418,65
314106,-671,765,-346,65
314147,-702,683,-315,65
314188,-707,635,-267,65
314229,-697,599,-243,65
314271,-682,566,-246,65
314312,-682,528,-274,65
314353,-721,466,-312,65
314394,-737,440,-329,65
314435,-893,454,-435,65
314476,-1014,487,-432,65
314517,-728,566,-497,65
314558,-669,614,-668,65
314599,-662,800,-657,65
314640,-695,779,-513,65
314682,-659,632,-488,65
314723,-591,629,-507,65
314764,-587,638,-386,65
314805,-531,670,-414,65
314846,-486,702,-458,65
314888,-463,718,-461,65
314929,-456,726,-505,65
314970,-438,755,-613,65
315011,-477,799,-634,65
315052,-581,845,-545,65
315094,-797,937,-727,65
315135,-610,1055,-709,65
315176,-683,808,-536,65
315217,-797,547,-561,66
315258,-752,726,-534,66
315299,-765,850,-470,66
315340,-777,785,-327,66
315381,-754,722,-328,66
315422,-708,687,-328,66
315464,-732,615,-279,66
315505,-732,547,-274,66
315546,-713,539,-313,66
315587,-662,529,-328,66
315628,-613,463,-312,66
315669,-597,406,-355,66
315710,-581,377,-484,66
315751,-648,467,-615,66
315792,-896,654,-538,66
315833,-915,791,-338,66
315874,-865,784,-334,66
315915,-927,792,-431,66
315956,-834,979,-374,66
315997,-830,950,-263,66
316038,-808,854,-192,66
316079,-697,697,-246,67
316120,-709,587,-241,67
316162,-677,638,-248,67
316203,-633,620,-293,67
316244,-622,610,-333,67
316285,-626,575,-400,67
316326,-633,563,-417,67
316367,-650,551,-389,67
316408,-672,506,-366,67
316449,-713,466,-332,67
316490,-752,449,-350,67
316531,-769,516,-330,67
316572,-770,578,-335,67
316613,-752,614,-348,67
316654,-700,677,-367,67
316698,-599,760,-511,67
316739,-605,805,-676,67
316780,-556,910,-716,67
316821,-461,903,-639,67
316862,-502,709,-613,67
316903,-540,751,-562,68
316944,-625,799,-491,68
316985,-711,784,-446,68
317027,-672,842,-419,68
317068,-659,810,-409,68
317109,-632,762,-440,68
317150,-616,724,-435,68
317192,-600,695,-412,68
317233,-590,660,-390,68
317274,-542,622,-368,68
317315,-528,583,-385,68
317356,-540,605,-421,68
317398,-570,657,-420,68
317439,-597,702,-471,68
317480,-714,610,-546,68
317521,-854,646,-454,68
317562,-708,594,-356,68
317603,-610,510,-450,68
317644,-647,611,-403,68
317685,-654,735,-333,68
317726,-732,680,-331,68
317767,-743,659,-360,68
317809,-635,632,-327,68
317850,-597,635,-339,68
317891,-563,693,-391,68
317932,-505,773,-396,68
317973,-464,802,-453,68
318015,-378,808,-563,68
318056,-388,804,-639,68
318097,-454,878,-655,68
318139,-498,976,-593,68
318180,-592,910,-624,68
318222,-748,1002,-722,68
318263,-551,991,-525,68
318304,-647,792,-505,68
318345,-753,789,-463,69
318386,-840,905,-344,69
318428,-857,961,-247,69
318469,-736,897,-234,69
318510,-694,763,-227,69
318551,-661,612,-214,69
318592,-616,543,-243,69
318633,-561,522,-289,69
318674,-542,525,-335,69
318715,-549,531,-382,69
318756,-600,540,-395,69
318797,-610,529,-461,69
318838,-646,517,-580,69
318879,-879,619,-573,69
318920,-703,699,-423,69
318961,-551,689,-503,69
319002,-600,777,-561,69
319043,-600,925,-519,69
319084,-668,742,-453,69
319125,-672,650,-381,69
319166,-598,669,-311,69
319207,-544,714,-299,69
319248,-494,749,-318,69
319289,-452,757,-363,69
319330,-403,774,-402,69
319371,-380,790,-504,69
319412,-414,816,-576,69
319453,-453,929,-624,69
319494,-431,993,-628,69
319535,-548,986,-708,69
319576,-570,1024,-725,69
319617,-556,1041,-569,69
319658,-638,924,-489,69
319700,-709,797,-386,70
319741,-772,789,-298,70
319782,-735,829,-307,70
319823,-618,842,-281,70
319864,-602,791,-257,70
319905,-628,729,-227,70
319947,-656,659,-194,70
319988,-634,644,-197,70
320029,-624,611,-230,70
320070,-630,574,-263,70
320112,-657,538,-271,70
320153,-632,507,-302,70
320194,-673,583,-501,70
320235,-812,683,-542,70
320276,-668,668,-394,70
320318,-524,604,-489,70
320359,-514,719,-590,70
320400,-599,881,-483,70
320441,-690,881,-395,70
320482,-653,763,-421,70
320524,-571,689,-453,70
320565,-542,690,-485,70
320606,-509,749,-556,70
320647,-497,777,-596,70
320688,-475,781,-640,70
320730,-456,743,-650,70
320771,-465,749,-607,70
320812,-507,833,-548,70
320853,-536,882,-487,70
320894,-618,944,-407,70
320936,-759,977,-331,70
320977,-693,983,-133,70
321018,-685,846,7,70
321059,-653,840,121,71
321100,-671,911,261,71
321141,-669,946,177,71
321182,-666,1040,180,71
321224,-606,1102,123,71
321265,-656,1091,61,71
321306,-697,1046,81,71
321347,-797,995,144,71
321388,-753,947,129,71
321429,-716,863,-39,72
321470,-702,736,-153,72
321511,-682,704,-140,72
321552,-672,628,-199,72
321593,-661,588,-273,72
321634,-783,579,-348,72
321675,-876,537,-335,72
321716,-758,562,-424,72
321757,-628,550,-566,72
321798,-610,598,-599,72
321843,-708,713,-477,72
321884,-786,713,-423,72
321925,-705,710,-454,72
321966,-644,668,-418,72
322007,-627,649,-387,72
322048,-577,665,-406,72
322089,-520,709,-425,72
322130,-472,729,-463,72
322171,-416,749,-492,72
322212,-370,794,-516,72
322253,-399,843,-510,72
322294,-542,869,-434,72
322335,-638,858,-390,72
322376,-781,801,-431,72
322417,-898,926,-471,72
322458,-626,979,-412,72
322499,-680,855,-382,72
322540,-762,808,-298,73
322581,-791,843,-278,73
322622,-706,900,-278,73
322663,-646,886,-215,73
322704,-658,775,-189,73
322745,-656,668,-196,73
322786,-628,594,-184,73
322828,-630,564,-180,73
322869,-617,565,-197,73
322910,-596,543,-237,73
322951,-619,525,-282,73
322992,-668,514,-390,73
323033,-794,566,-556,73
323075,-920,658,-435,73
323116,-669,687,-330,73
323157,-734,617,-510,73
323198,-744,819,-495,73
323240,-773,754,-424,73
323281,-705,728,-447,73
323322,-597,775,-430,73
323363,-624,738,-334,73
323404,-564,785,-383,73
323445,-466,800,-468,73
323487,-420,775,-496,73
323528,-408,779,-524,73
323569,-425,793,-571,73
323610,-529,826,-583,73
323652,-610,937,-533,73
323693,-798,984,-562,73
323734,-825,1002,-541,73
323775,-705,895,-410,73
323816,-788,745,-391,74
323858,-822,719,-281,74
323899,-841,804,-250,74
323940,-756,879,-274,74
323981,-669,816,-209,74
324022,-638,696,-208,74
324064,-646,498,-191,74
324105,-617,429,-193,74
324146,-554,520,-223,74
324187,-573,555,-264,74
324228,-612,573,-298,74
324270,-677,546,-320,74
324312,-709,549,-453,74
324353,-968,637,-536,74
324394,-908,622,-375,74
324435,-726,655,-445,74
324476,-684,811,-531,74
324518,-688,855,-473,74
324559,-704,697,-468,74
324600,-647,649,-474,75
324641,-577,688,-377,75
324682,-546,703,-328,75
324723,-488,757,-395,75
324764,-442,764,-405,75
324805,-397,754,-401,75
324846,-414,743,-498,75
324887,-439,788,-554,75
324928,-478,874,-589,75
324969,-605,879,-614,75
325010,-872,988,-694,75
325051,-644,958,-498,75
325092,-775,689,-404,75
325133,-928,544,-381,76
325174,-967,571,-285,76
325215,-882,588,-203,76
325256,-792,558,-219,76
325297,-724,505,-260,76
325338,-709,464,-271,76
325379,-759,467,-298,76
325420,-761,497,-285,76
325461,-769,495,-275,76
325502,-793,490,-302,76
325544,-823,533,-312,76
325585,-757,594,-299,76
325626,-776,639,-330,76
325667,-1075,753,-299,76
325708,-1036,791,-82,76
325749,-933,776,53,76
325790,-780,782,-57,76
325831,-691,776,-171,77
325872,-696,713,-193,77
325913,-700,728,-202,77
325955,-556,799,-351,77
325996,-915,745,67,77
326037,-547,682,-299,77
326078,-521,647,-400,77
326119,-553,650,-402,77
326160,-593,671,-388,77
326202,-589,709,-392,77
326243,-567,718,-445,77
326284,-547,715,-499,77
326325,-549,686,-538,77
326367,-563,664,-578,77
326408,-624,669,-607,77
326449,-753,693,-661,77
326490,-674,677,-583,77
326531,-607,591,-504,77
326573,-556,557,-507,77
326614,-525,711,-490,77
326655,-581,831,-501,77
326696,-599,919,-460,77
326737,-583,857,-404,77
326779,-564,747,-443,77
326820,-548,700,-426,77
326861,-510,710,-426,77
326902,-506,704,-429,77
326943,-521,696,-393,77
326988,-541,633,-410,77
327029,-561,614,-448,77
327070,-672,609,-467,77
327111,-765,573,-487,77
327152,-1018,619,-508,77
327194,-953,483,-336,77
327235,-757,459,-387,77
327276,-802,582,-356,77
327317,-817,657,-257,77
327358,-839,592,-290,77
327399,-762,598,-266,77
327440,-679,613,-255,77
327481,-610,643,-306,77
327522,-523,722,-396,77
327563,-461,771,-460,77
327604,-401,776,-533,77
327645,-426,752,-589,77
327686,-456,788,-631,77
327727,-469,864,-638,77
327768,-597,897,-628,77
327809,-854,1020,-738,77
327850,-632,1087,-668,77
327891,-725,826,-468,77
327932,-833,643,-431,77
327973,-937,810,-390,77
328014,-919,1007,-334,77
328055,-835,945,-220,77
328096,-756,754,-149,77
328137,-697,642,-132,77
328178,-638,546,-141,77
328219,-612,523,-152,77
328260,-581,523,-165,77
328301,-553,519,-200,77
328342,-539,546,-287,77
328383,-574,536,-407,77
328424,-562,661,-574,77
328465,-716,897,-525,77
328506,-559,997,-492,77
328547,-370,991,-772,77
328588,-297,944,-873,77
328629,-394,840,-698,77
328670,-395,673,-559,77
328711,-361,632,-372,77
328752,-344,579,-316,77
328793,-317,563,-313,77
328835,-296,595,-345,77
328877,-330,621,-328,77
328918,-426,633,-355,77
328959,-526,662,-407,77
329000,-643,770,-419,77
329041,-633,898,-415,77
329083,-818,993,-540,77
329124,-530,1072,-569,77
329165,-383,1129,-526,77
329206,-491,1026,-462,77
329247,-513,969,-480,77
329289,-487,987,-490,77
329330,-444,969,-416,77
329371,-502,869,-385,77
329412,-585,758,-379,77
329453,-629,701,-348,77
329495,-687,631,-306,77
329536,-641,576,-289,77
329577,-578,531,-322,77
329618,-559,511,-268,77
329660,-594,464,-265,77
329701,-604,464,-396,77
329743,-716,533,-530,77
329784,-921,689,-422,77
329825,-747,746,-442,77
329866,-651,814,-526,77
329908,-598,883,-460,77
329949,-634,764,-385,77
329990,-645,589,-362,77
330031,-610,590,-310,77
330072,-551,672,-298,77
330113,-493,737,-436,77
330154,-353,885,-610,77
330195,-256,1006,-725,77
330236,-260,1046,-707,77
330277,-370,962,-598,77
330318,-459,897,-533,77
330359,-576,901,-429,81
330400,-597,923,-332,81
330441,-736,900,-328,81
330482,-791,952,-293,81
330523,-743,965,-205,81
330564,-732,851,-69,81
330605,-709,776,44,81
330646,-696,694,109,81
330687,-665,701,111,81
330728,-624,751,84,81
330769,-613,800,41,81
330810,-649,846,-43,81
330851,-685,916,-63,81
330892,-686,945,-101,81
330933,-636,935,-155,81
330974,-641,857,-188,81
331015,-676,794,-216,81
331056,-680,764,-212,81
331097,-637,699,-234,81
331138,-689,645,-261,81
331179,-804,525,-284,81
331220,-754,491,-271,81
331261,-710,505,-375,81
331302,-829,452,-392,81
331343,-922,410,-408,81
331384,-941,446,-388,81
331425,-882,399,-386,81
331466,-835,286,-386,81
331507,-762,340,-426,81
331548,-684,456,-425,81
331590,-634,507,-450,81
331631,-605,579,-476,81
331672,-552,585,-475,81
331713,-542,525,-474,81
331754,-577,553,-530,81
331795,-623,659,-552,81
331836,-652,772,-541,81
331877,-795,863,-608,81
331918,-765,1005,-609,81
331959,-623,980,-475,81
332000,-693,883,-446,81
332041,-768,855,-349,81
332082,-801,851,-258,81
332126,-721,890,-195,81
332167,-663,838,-218,81
332208,-664,806,-213,81
332249,-697,743,-202,81
332290,-693,705,-190,81
332331,-633,639,-186,81
332372,-630,615,-201,81
332413,-609,561,-216,81
332454,-674,421,-217,81
332495,-722,409,-340,81
332536,-890,537,-576,81
332577,-817,601,-502,81
332618,-682,690,-457,81
332659,-718,802,-549,81
332700,-645,992,-561,81
332741,-646,898,-475,81
332782,-607,752,-427,81
332823,-558,701,-408,81
332864,-526,725,-323,81
332905,-461,727,-369,81
332946,-427,753,-410,81
332987,-372,824,-470,81
333028,-367,851,-525,81
333069,-414,898,-584,81
333110,-492,951,-563,81
333151,-684,1014,-615,81
333192,-762,1068,-710,81
333233,-562,952,-540,81
333274,-723,705,-371,81
333315,-862,687,-300,81
333357,-843,846,-204,81
333398,-778,863,-216,81
333439,-656,793,-208,81
333480,-625,738,-213,81
333521,-612,657,-229,81
333562,-591,573,-224,81
333603,-588,564,-227,81
333644,-596,553,-241,81
333685,-635,533,-265,81
333726,-702,551,-293,81
333767,-728,557,-399,81
333808,-942,627,-541,81
333849,-791,665,-431,81
333890,-591,676,-456,81
333931,-653,829,-507,81
333972,-626,960,-450,81
334013,-588,841,-418,81
334054,-531,714,-394,81
334095,-477,710,-324,81
334136,-466,744,-303,81
334177,-465,766,-349,81
334218,-451,782,-373,81
334259,-404,776,-421,81
334300,-408,734,-507,81
334341,-421,741,-584,81
334382,-468,825,-656,81
334423,-508,869,-600,81
334464,-661,884,-505,81
334505,-825,945,-584,81
334546,-554,1064,-542,81
334587,-573,1003,-454,81
334628,-679,841,-370,81
334669,-727,783,-306,85
334711,-753,739,-313,85
334752,-681,790,-264,85
334793,-697,789,-222,85
334834,-695,750,-192,85
334875,-681,665,-230,85
334916,-674,558,-267,85
334957,-652,515,-288,85
334998,-616,447,-329,85
335039,-604,413,-361,85
335080,-625,432,-356,85
335121,-627,523,-396,85
335162,-680,619,-481,85
335203,-997,871,-583,85
335244,-971,1056,-434,85
335285,-741,1148,-257,85
335326,-601,1068,-309,85
335367,-582,939,-283,85
335408,-611,792,-254,86
335449,-645,683,-237,86
335490,-590,609,-207,86
335531,-589,567,-237,86
335572,-567,584,-353,86
335613,-533,580,-491,86
335654,-540,639,-479,86
335695,-490,704,-518,86
335736,-455,736,-543,86
335777,-404,789,-438,86
335818,-373,780,-391,86
335859,-381,769,-384,86
335900,-351,775,-485,86
335941,-424,752,-494,86
335982,-357,746,-598,86
336023,-311,772,-670,86
336064,-390,852,-744,86
336105,-582,992,-783,86
336146,-524,1000,-532,86
336187,-557,806,-460,86
336228,-461,634,-428,87
336269,-525,610,-349,87
336310,-631,661,-280,87
336351,-595,767,-216,87
336392,-533,826,-208,87
336433,-559,826,-235,87
336474,-606,822,-223,87
336515,-629,835,-208,87
336556,-626,820,-258,87
336597,-614,826,-297,87
336638,-591,807,-331,87
336679,-536,796,-441,87
336720,-484,796,-510,87
336761,-445,744,-471,87
336802,-425,728,-390,87
336843,-387,694,-383,87
336884,-378,681,-383,87
336925,-597,755,-358,87
336966,-427,858,-213,87
337008,-424,791,-261,87
337049,-388,820,-414,87
337090,-404,861,-342,87
337131,-395,744,-379,87
337172,-424,741,-349,87
337214,-456,820,-219,87
337261,-403,883,-265,87
337302,-365,833,-312,87
337343,-294,858,-214,87
337384,-203,830,-298,87
337425,-252,983,-288,87
337467,-239,936,-326,87
337508,-163,1071,-422,87
337549,-222,960,-325,87
337590,-259,932,-305,87
337631,-182,903,-528,87
337672,-84,874,-598,87
337713,-90,860,-727,87
337754,-17,819,-763,87
337795,89,623,-840,87
337836,72,537,-916,87
337877,55,574,-1022,87
337918,-107,541,-1130,87
337959,-16,411,-1196,87
338000,-24,384,-1342,87
338041,-106,204,-1202,87
338082,-23,140,-978,87
338123,92,143,-771,87
338164,160,-38,-862,87
338205,53,42,-701,87
338246,-95,47,-601,87
338287,-118,-64,-902,87
338328,-331,102,-840,87
338369,-351,53,-912,87
338410,-244,-21,-1014,87
338451,-157,-96,-804,87
338492,-222,-9,-1186,87
338533,-46,-68,-1060,87
338574,-189,-113,-1143,87
338615,-86,74,-986,87
338656,-88,6,-868,87
338697,26,36,-1152,87
338738,-252,-126,-984,87
338779,-30,1,-1096,87
338820,-249,-15,-993,87
338861,-103,-26,-1002,87
338902,-66,37,-942,87
338943,-137,4,-966,87
338984,-109,27,-1057,87
339025,-72,-34,-1045,87
339066,-49,-17,-1030,87
339107,61,-86,-782,87
339148,338,-112,-1343,87
339189,22,-298,-920,87
339230,94,-225,-923,87
339271,72,-214,-958,87
339312,63,-219,-954,87
339353,61,-213,-976,87
339394,61,-211,-984,87
339435,60,-207,-995,87
339476,58,-208,-993,87
339517,58,-206,-999,87
339558,57,-207,-998,87
339599,57,-207,-998,87
339640,57,-207,-996,87
339681,58,-207,-996,87
339722,58,-208,-998,87
339763,57,-207,-998,87
339804,59,-207,-999,87
339845,57,-208,-997,87
339886,57,-207,-997,87
339928,58,-207,-998,87
339969,57,-207,-999,87
340010,57,-207,-997,87
340051,58,-207,-998,87
340092,57,-207,-997,87
340134,57,-207,-998,87
340175,57,-206,-997,87
340216,57,-207,-998,87
340257,58,-206,-997,87
340298,57,-207,-997,87
340340,57,-207,-997,87
340381,57,-207,-997,87
340422,58,-207,-997,87
340463,57,-206,-997,87
340504,58,-206,-995,87
340546,57,-205,-1000,87
340587,58,-205,-997,87
340628,57,-207,-998,87
340669,57,-207,-998,87
340710,56,-207,-997,87
340752,59,-207,-998,87
340793,59,-207,-998,87
340834,55,-208,-998,87
340875,57,-207,-995,87
340916,57,-208,-995,87
340957,55,-207,-999,87
340998,54,-205,-999,87
341039,64,-208,-997,87
341080,53,-207,-997,87
341121,58,-205,-996,87
341162,59,-211,-1000,87
341203,54,-204,-998,87
341244,58,-208,-999,87
341285,59,-208,-998,87
341326,55,-208,-999,87
341367,58,-208,-998,87
341408,57,-207,-997,87
341449,54,-206,-998,87
341490,59,-208,-995,87
341531,57,-208,-999,87
341572,56,-206,-998,87
341613,59,-209,-998,87
341654,57,-206,-999,87
341695,56,-206,-997,87
341736,59,-208,-998,87
341777,56,-207,-997,87
341818,56,-207,-997,87
341859,59,-208,-998,87
341900,58,-207,-998,87
341941,54,-206,-998,87
341982,59,-208,-998,87
342023,58,-208,-997,87
342064,56,-207,-996,87
342105,56,-207,-998,87
342146,57,-211,-1000,87
342187,55,-207,-998,87
342229,56,-210,-996,87
342270,59,-207,-998,87
342311,56,-207,-998,87
342352,56,-208,-998,87
342396,58,-207,-997,87
342437,56,-208,-998,87
342478,58,-206,-999,87
342519,57,-207,-999,87
342560,56,-207,-997,87
342602,58,-207,-998,87
342644,57,-209,-997,87
342685,57,-206,-998,87
342726,54,-206,-997,87
342767,60,-209,-999,87
342808,57,-207,-1000,87
342850,55,-206,-998,87
342891,62,-214,-1001,87
342932,57,-205,-993,87
342973,52,-202,-994,87
343014,60,-212,-999,87
343055,56,-203,-998,87
343097,51,-204,-996,87
343138,62,-209,-1000,87
343179,54,-206,-998,87
343220,55,-206,-997,87
343262,61,-208,-998,87
343303,55,-206,-997,87
343344,57,-207,-997,87
343385,61,-209,-998,87
343426,56,-206,-998,87
343468,56,-204,-995,87
343509,69,-211,-990,87
343550,53,-206,-999,87
343591,51,-200,-996,87
343632,64,-213,-1000,87
343673,54,-202,-996,87
343714,55,-208,-996,87
343755,66,-213,-997,87
343796,51,-203,-997,87
343837,57,-208,-1000,87
343878,60,-207,-998,87
343919,54,-208,-1000,87
343960,58,-204,-997,87
344001,54,-210,-998,87
344042,58,-206,-995,87
344083,58,-210,-998,87
344124,58,-208,-998,87
344165,53,-208,-997,87
344206,58,-209,-998,87
344247,58,-207,-1000,87
344288,54,-207,-996,87
344329,59,-207,-996,87
344370,56,-209,-999,87
344411,56,-207,-998,87
344452,57,-210,-998,87
344493,56,-207,-998,87
344534,56,-208,-997,87
344575,58,-209,-999,87
344616,55,-208,-997,87
344657,57,-207,-997,87
344698,58,-212,-997,87
344739,56,-207,-997,87
344780,55,-208,-997,87
344821,57,-210,-998,87
344862,55,-208,-996,87
344903,55,-209,-997,87
344944,59,-207,-998,87
344985,55,-207,-997,87
345026,55,-207,-997,87
345067,58,-210,-996,87
345108,54,-207,-1000,87
345149,53,-205,-1000,87
345190,58,-209,-999,87
345231,53,-209,-1000,87
345272,56,-206,-997,87
345313,52,-210,-999,87
345354,55,-206,-996,87
345396,56,-208,-997,87
345437,56,-208,-999,87
345478,58,-212,-997,87
345519,55,-208,-994,87
345561,52,-207,-993,87
345602,62,-209,-1000,87
345643,58,-207,-999,87
345684,51,-205,-996,87
345725,61,-210,-1001,87
345766,56,-208,-998,87
345807,48,-204,-996,87
345848,59,-211,-998,87
345889,57,-210,-999,87
345930,53,-208,-998,87
345972,58,-210,-997,87
346013,56,-208,-994,87
346054,57,-208,-997,87
346095,57,-208,-997,87
346136,55,-212,-1000,87
346178,56,-207,-997,87
346219,53,-210,-995,87
346260,58,-208,-995,87
346301,50,-202,-989,87
346342,66,-215,-993,87
346383,57,-210,-996,87
346424,46,-205,-997,87
346465,67,-213,-1005,87
346506,49,-203,-996,87
346547,55,-209,-996,87
346588,64,-215,-997,87
346629,50,-203,-996,87
346670,51,-208,-998,87
346711,62,-210,-1001,87
346752,49,-207,-997,87
346793,55,-208,-996,87
346834,60,-212,-1000,87
346875,52,-205,-997,87
346916,54,-209,-998,87
346957,60,-211,-1000,87
346998,51,-207,-995,87
347039,54,-209,-998,87
347080,59,-211,-1001,87
347121,53,-205,-996,87
347162,56,-207,-1000,87
347203,58,-209,-1001,87
347244,52,-209,-1001,87
347285,55,-207,-1000,87
347326,55,-208,-995,87
347367,56,-209,-998,87
347408,57,-209,-997,87
347449,49,-204,-996,87
347490,58,-212,-999,87
347534,59,-209,-996,87
347575,46,-204,-996,87
347616,61,-209,-999,87
347658,58,-211,-996,87
347699,48,-204,-995,87
347740,60,-211,-998,87
347781,56,-210,-998,87
347822,51,-207,-996,87
347864,59,-210,-998,87
347905,55,-209,-997,87
347946,53,-208,-995,87
347987,58,-210,-998,87
348028,53,-209,-998,87
348070,56,-209,-998,87
348111,55,-210,-998,87
348152,52,-206,-996,87
348193,56,-209,-998,87
348234,56,-210,-999,87
348275,52,-206,-997,87
348317,57,-210,-998,87
348358,55,-209,-996,87
348399,53,-208,-998,87
348440,57,-209,-999,87
348482,56,-210,-999,87
348523,51,-206,-997,87
348564,58,-211,-998,87
348605,57,-209,-997,87
348646,53,-208,-997,87
348688,58,-210,-998,87
348729,55,-205,-999,87
348770,51,-205,-999,87
348811,57,-209,-999,87
348852,55,-210,-999,87
348893,49,-205,-995,87
348934,58,-210,-998,87
348975,59,-213,-1004,87
349016,48,-204,-995,87
349057,53,-211,-1000,87
349098,59,-210,-998,87
349139,50,-207,-997,87
349181,56,-204,-1002,87
349222,52,-211,-1000,87
349263,56,-208,-998,87
349304,53,-210,-990,87
349345,56,-211,-991,87
349386,56,-210,-1002,87
349427,55,-206,-999,87
349468,51,-206,-996,87
349509,58,-208,-998,87
349550,58,-210,-995,87
349591,48,-205,-996,87
349632,60,-208,-1000,87
349673,56,-210,-998,87
349714,46,-202,-1000,87
349755,60,-206,-1001,87
349796,56,-210,-1000,87
349837,52,-203,-993,87
349878,57,-213,-996,87
349919,55,-206,-997,87
349960,53,-209,-1000,87
350001,56,-208,-998,87
350042,54,-207,-997,87
350083,54,-208,-997,87
350124,56,-210,-999,87
350165,53,-208,-996,87
350206,56,-207,-998,87
350247,54,-209,-997,87
350288,54,-207,-998,87
350329,54,-208,-998,87
350370,55,-208,-999,87
350411,53,-207,-997,87
350452,55,-208,-998,87
350493,55,-208,-997,87
350534,54,-208,-998,87
350575,56,-208,-998,87
350616,55,-210,-998,87
350657,56,-208,-996,87
350698,55,-208,-997,87
350739,55,-208,-998,87
350780,57,-208,-1000,87
350822,55,-208,-998,87
350863,53,-207,-998,87
350904,58,-209,-998,87
350945,55,-209,-998,87
350987,53,-207,-997,87
351029,56,-209,-998,87
351070,56,-208,-998,87
351111,53,-208,-998,87
351152,56,-210,-998,87
351194,55,-208,-997,87
351235,53,-207,-997,87
351276,56,-208,-997,87
351317,56,-209,-998,87
351358,55,-209,-998,87
351399,54,-207,-997,87
351441,56,-209,-998,87
351482,56,-209,-997,87
351523,52,-209,-998,87
351564,56,-209,-996,87
351605,55,-209,-996,87
351647,54,-208,-995,87
351688,56,-209,-996,87
351729,57,-209,-1000,87
351770,52,-208,-998,87
351811,55,-207,-997,87
351852,57,-207,-997,87
351893,54,-207,-996,87
351934,54,-208,-1000,87
351975,56,-209,-1000,87
352016,52,-208,-997,87
352057,55,-208,-997,87
352098,56,-209,-998,87
352139,54,-207,-998,87
352180,54,-208,-997,87
352221,56,-208,-1000,87
352262,54,-208,-1000,87
352303,54,-208,-999,87
352344,57,-207,-997,87
352385,54,-207,-996,87
352426,54,-210,-998,87
352467,56,-209,-999,87
352508,54,-209,-997,87
352549,56,-208,-997,87
352590,54,-208,-997,87
352631,54,-207,-997,87
352676,56,-209,-997,87
352717,54,-208,-998,87
352758,54,-208,-996,87
352799,56,-209,-997,87
352840,55,-208,-997,87
352881,55,-208,-997,87
352922,56,-207,-998,87
352963,54,-209,-998,87
353004,55,-208,-997,87
353045,56,-209,-997,87
353086,55,-206,-997,87
353127,54,-207,-998,87
353168,55,-208,-998,87
353209,56,-207,-998,87
353250,52,-207,-996,87
353291,56,-208,-995,87
353332,56,-209,-993,87
353373,55,-208,-999,87
353414,58,-209,-1000,87
353455,53,-207,-998,87
353496,55,-207,-1000,87
353537,57,-209,-998,87
353578,53,-208,-997,87
353619,54,-208,-995,87
353660,57,-209,-995,87
353701,52,-208,-998,87
353742,56,-209,-1000,87
353783,56,-208,-1002,87
353824,53,-207,-996,87
353865,53,-208,-995,87
353906,56,-209,-998,87
353947,56,-209,-999,87
353988,50,-206,-995,87
354029,59,-211,-998,87
354070,54,-208,-999,87
354111,52,-204,-996,87
354152,58,-211,-1001,87
354193,53,-205,-997,87
354234,51,-207,-997,87
354275,58,-209,-999,87
354316,56,-208,-998,87
354357,53,-206,-995,87
354398,58,-208,-997,87
354439,54,-208,-997,87
354480,54,-206,-997,87
354521,57,-211,-1000,87
354563,54,-206,-996,87
354604,52,-208,-999,87
354645,57,-208,-997,87
354686,54,-208,-996,87
354727,54,-207,-997,87
354768,56,-209,-996,87
354810,55,-207,-997,87
354851,54,-206,-995,87
354892,58,-212,-997,87
354933,54,-205,-997,87
354975,52,-207,-997,87
355016,56,-209,-997,87
355057,54,-207,-998,87
355098,51,-207,-999,87
355139,57,-209,-999,87
355181,55,-208,-999,87
355222,52,-206,-996,87
355263,56,-210,-999,87
355304,54,-207,-996,87
355345,53,-209,-998,87
355386,57,-210,-996,87
355427,54,-207,-998,87
355468,58,-207,-999,87
355509,54,-207,-1000,87
355550,54,-204,-999,87
355592,58,-210,-992,87
355633,53,-207,-1000,87
355674,53,-209,-999,87
355715,59,-209,-1001,87
355756,48,-206,-999,87
355797,57,-208,-997,87
355838,56,-212,-998,87
355879,52,-204,-996,87
355920,54,-209,-998,87
355961,57,-209,-998,87
356002,50,-207,-998,87
356043,56,-210,-999,87
356084,57,-208,-998,87
356125,52,-206,-997,87
356166,55,-209,-1000,87
356207,56,-208,-998,87
356248,52,-206,-998,87
356289,55,-209,-997,87
356330,55,-208,-996,87
356371,54,-207,-997,87
356412,54,-209,-998,87
356453,53,-209,-998,87
356494,53,-208,-1000,87
356535,55,-208,-998,87
356576,55,-208,-998,87
356617,55,-207,-997,87
356658,55,-209,-997,87
356699,54,-209,-997,87
356740,56,-210,-999,87
356781,55,-207,-997,87
356822,55,-208,-998,87
356863,55,-208,-998,87
356904,54,-208,-997,87
356945,55,-208,-997,87
356987,54,-208,-999,87
357028,54,-208,-998,87
357070,53,-207,-998,87
357111,55,-209,-998,87
357152,54,-209,-998,87
357193,54,-208,-997,87
357234,54,-208,-998,87
357276,56,-208,-999,87
357317,54,-209,-997,87
357358,54,-207,-996,87
357399,55,-209,-998,87
357440,53,-209,-997,87
357482,54,-207,-998,87
357523,55,-210,-999,87
357564,56,-208,-997,87
357605,52,-206,-998,87
357646,56,-208,-999,87
357688,56,-209,-998,87
357729,47,-207,-997,87
357770,55,-210,-998,87
357814,53,-209,-996,87
357855,52,-205,-995,87
357896,58,-212,-998,87
357938,53,-208,-998,87
357979,49,-205,-997,87
358020,58,-213,-999,87
358061,55,-208,-999,87
358103,49,-205,-998,87
358144,57,-208,-998,87
358185,55,-210,-999,87
358226,51,-207,-996,87
358267,58,-208,-999,87
358308,54,-210,-998,87
358349,54,-207,-997,87
358390,56,-210,-998,87
358431,57,-209,-998,87
358472,52,-206,-999,87
358514,53,-207,-1000,87
358555,57,-210,-997,87
358596,52,-209,-995,87
358637,57,-209,-998,87
358678,54,-209,-998,87
358719,53,-208,-996,87
358760,56,-208,-1000,87
358801,54,-207,-999,87
358842,52,-208,-998,87
358883,57,-209,-997,87
358924,53,-209,-999,87
358965,54,-208,-997,87
359006,58,-210,-998,87
359047,54,-208,-998,87
359088,53,-207,-998,87
359129,55,-209,-999,87
359170,55,-207,-997,87
359211,52,-209,-996,87
359252,56,-208,-997,87
359293,55,-209,-998,87
359334,55,-207,-997,87
359375,54,-208,-998,87
359416,55,-208,-997,87
359457,54,-207,-998,87
359498,53,-209,-999,87
359539,56,-208,-997,87
359580,51,-209,-997,87
359621,54,-208,-996,87
359662,56,-210,-998,87
359703,52,-207,-997,87
359744,54,-209,-997,87
359785,57,-208,-999,87
359826,53,-207,-998,87
359867,54,-207,-997,87
359908,56,-209,-998,87
359949,53,-209,-998,87
359990,56,-208,-996,87
360031,54,-209,-996,87
360072,55,-207,-998,87
360113,56,-210,-999,87
360154,54,-209,-999,87
360195,53,-207,-998,87
360237,55,-208,-998,87
360278,56,-208,-998,87
360319,54,-208,-1000,87
360360,60,-209,-1003,87
360402,52,-203,-997,87
360443,55,-205,-994,87
360484,57,-207,-996,87
360525,58,-211,-997,87
360566,54,-201,-994,87
360608,54,-207,-994,87
360649,59,-204,-999,87
360691,55,-209,-999,87
360732,54,-205,-1000,87
360773,57,-204,-1000,87
360815,56,-205,-998,87
360856,54,-206,-997,87
360897,58,-206,-995,87
360938,56,-208,-999,87
360979,54,-203,-998,87
361021,56,-205,-1000,87
361062,56,-207,-1001,87
361103,56,-206,-996,87
361144,56,-208,-998,87
361185,56,-206,-1000,87
361227,55,-206,-996,87
361268,56,-207,-998,87
361309,59,-205,-999,87
361350,54,-206,-999,87
361391,56,-206,-997,87
361433,56,-208,-999,87
361474,55,-205,-998,87
361515,57,-208,-997,87
361556,55,-207,-997,87
361597,55,-203,-997,87
361638,57,-207,-1000,87
361679,54,-206,-996,87
361720,58,-208,-1001,87
361761,56,-204,-1001,87
361802,54,-206,-997,87
361843,56,-206,-999,87
361884,55,-207,-997,87
361925,55,-206,-996,87
361966,56,-206,-998,87
362007,54,-206,-997,87
362048,57,-205,-998,87
362089,56,-206,-999,87
362130,54,-206,-1000,87
362171,56,-207,-997,87
362212,56,-206,-998,87
362253,54,-205,-996,87
362294,53,-207,-998,87
362335,58,-210,-999,87
362376,55,-207,-997,87
362417,51,-205,-995,87
362458,59,-209,-999,87
362499,58,-209,-999,87
362540,51,-204,-997,87
362581,57,-208,-999,87
362622,54,-209,-999,87
362663,51,-206,-998,87
362704,54,-208,-998,87
362745,57,-211,-999,87
362786,53,-206,-996,87
362827,53,-208,-997,87
362868,57,-208,-999,87
362909,52,-205,-997,87
362953,55,-208,-998,87
362994,57,-208,-997,87
363035,52,-206,-997,87
363076,55,-209,-999,87
363118,54,-208,-998,87
363159,52,-208,-997,87
363200,54,-208,-996,87
363241,55,-209,-997,87
363282,54,-208,-999,87
363324,55,-207,-998,87
363365,54,-208,-996,87
363406,53,-205,-998,87
363447,54,-210,-999,87
363488,56,-209,-996,87
363530,54,-207,-996,87
363571,54,-209,-996,87
363612,57,-209,-999,87
363653,50,-204,-1001,87
363694,54,-207,-996,87
363735,53,-212,-1001,87
363776,56,-206,-995,87
363817,50,-209,-997,87
363858,57,-207,-999,87
363899,58,-211,-1000,87
363940,51,-204,-997,87
363981,53,-208,-998,87
364022,57,-209,-999,87
364063,53,-208,-999,87
364104,52,-207,-999,87
364145,55,-208,-998,87
364186,54,-208,-999,87
364227,55,-207,-996,87
364268,52,-208,-997,87
364309,55,-208,-996,87
364350,53,-209,-999,87
364391,54,-208,-997,87
364432,53,-208,-997,87
364473,56,-209,-998,87
364514,54,-207,-997,87
364555,52,-208,-1000,87
364596,55,-210,-998,87
364637,52,-210,-996,87
364678,56,-206,-997,87
364719,54,-208,-998,87
364760,52,-210,-1003,87
364801,55,-211,-992,87
364842,49,-210,-993,87
364883,60,-208,-998,87
364924,56,-209,-998,87
364965,53,-198,-1003,87
365006,55,-210,-1003,87
365047,56,-205,-996,87
365088,50,-206,-997,87
365129,55,-207,-994,87
365170,62,-203,-1003,87
365211,50,-204,-1002,87
365252,56,-204,-997,87
365293,61,-215,-1001,87
365334,47,-205,-994,87
365375,53,-208,-994,87
365416,60,-211,-1005,87
365457,49,-206,-993,87
365498,55,-211,-994,87
365539,56,-208,-995,87
365580,53,-207,-996,87
365621,56,-208,-997,87
365662,59,-209,-995,87
365703,51,-206,-998,87
365744,55,-208,-1004,87
365785,54,-210,-996,87
365827,46,-206,-993,87
365868,63,-209,-997,87
365909,57,-211,-991,87
365950,46,-204,-989,87
365991,59,-210,-1001,87
366033,62,-209,-1000,87
366074,46,-201,-995,87
366115,61,-210,-1000,87
366156,57,-210,-998,87
366197,49,-206,-996,87
366239,58,-210,-998,87
366280,54,-208,-998,87
366321,51,-203,-997,87
366362,57,-210,-998,87
366403,54,-206,-998,87
366444,50,-206,-996,87
366485,58,-208,-999,87
366526,55,-207,-998,87
366567,53,-207,-999,87
366608,57,-208,-999,87
366649,54,-207,-997,87
366690,52,-205,-997,87
366731,58,-210,-998,87
366772,51,-208,-998,87
366813,52,-206,-996,87
366854,57,-210,-999,87
366895,52,-206,-997,87
366936,53,-207,-997,87
366977,58,-210,-1000,87
367018,53,-207,-997,87
367059,53,-208,-997,87
367100,58,-207,-996,87
367141,52,-207,-998,87
367182,54,-207,-998,87
367223,56,-208,-998,87
367264,52,-207,-997,87
367305,55,-209,-998,87
367346,57,-208,-999,87
367387,52,-207,-997,87
367428,53,-208,-996,87
367469,58,-210,-997,87
367510,51,-205,-998,87
367551,56,-208,-1000,87
367592,56,-209,-997,87
367633,52,-206,-996,87
367674,55,-210,-998,87
367715,59,-209,-997,87
367756,50,-204,-998,87
367797,57,-205,-996,87
367838,54,-208,-1001,87
367879,54,-206,-1001,87
367920,55,-209,-995,87
367961,56,-209,-993,87
368002,56,-208,-993,87
368103,53,-209,-997,87
368210,53,-209,-997,87
368307,57,-210,-997,87
368405,55,-211,-1005,87
368505,48,-207,-997,87
368606,48,-203,-995,87
368704,53,-205,-999,87
368803,57,-213,-1005,87
368899,57,-212,-997,87
368996,54,-205,-994,87
369095,52,-208,-997,87
369195,53,-208,-996,87
369294,56,-208,-994,87
369392,60,-213,-1000,87
369492,56,-211,-997,87
369591,54,-206,-997,87
369693,54,-206,-995,87
369790,55,-206,-998,87
369891,59,-210,-998,87
369989,58,-212,-997,87
370089,55,-208,-994,87
370186,50,-204,-993,87
370285,53,-208,-998,87
370382,57,-211,-992,87
370479,58,-211,-998,87
370576,61,-213,-997,87
370675,62,-214,-1000,87
370773,54,-210,-999,87
370871,49,-203,-995,87
370970,55,-209,-996,87
371067,60,-210,-1000,87
371166,56,-209,-999,87
371266,55,-208,-998,87
371364,55,-207,-998,87
371464,53,-209,-997,87
371561,53,-209,-995,87
371658,57,-211,-1001,87
371755,60,-209,-995,87
371853,57,-214,-999,87
371951,56,-208,-1000,87
372052,56,-209,-1000,87
372147,55,-208,-997,87
372247,54,-208,-997,87
372345,54,-208,-998,87
372444,56,-209,-997,87
372542,56,-209,-999,87
372644,55,-208,-998,87
372742,53,-206,-997,87
372840,54,-207,-997,87
372939,54,-208,-996,87
373037,56,-208,-996,87
373136,56,-207,-997,87
373234,58,-207,-994,87
373332,58,-208,-997,87
373432,55,-210,-999,87
373529,60,-209,-994,87
373628,54,-207,-996,87
373726,47,-206,-995,87
373824,52,-204,-998,87
373920,59,-209,-1000,87
374017,58,-207,-999,87
374116,56,-208,-1001,87
374215,52,-205,-997,87
374314,52,-207,-996,87
374412,43,-209,-994,87
374512,43,-200,-993,87
374610,49,-207,-991,87
374708,61,-210,-996,87
374807,67,-216,-995,87
374906,58,-208,-997,87
375003,49,-201,-996,87
375103,48,-208,-1000,87
375202,51,-211,-999,87
375302,55,-209,-999,87
375400,61,-212,-1001,87
375497,62,-212,-1001,87
375596,50,-203,-996,87
375695,49,-203,-996,87
375793,54,-207,-996,87
375891,58,-209,-999,87
375990,57,-210,-1000,87
376089,54,-207,-999,87
376188,53,-208,-999,87
376286,56,-210,-997,87
376382,56,-206,-997,87
376478,53,-206,-998,87
376576,53,-207,-996,87
376672,55,-208,-997,87
376770,56,-209,-997,87
376867,56,-209,-997,87
376965,55,-209,-998,87
377062,53,-208,-999,87
377161,54,-208,-998,87
377260,55,-208,-999,87
377359,53,-208,-997,87
377458,54,-208,-998,87
377558,54,-209,-998,87
377656,54,-208,-997,87
377754,54,-208,-997,87
377852,54,-206,-997,87
377951,54,-210,-997,87
378050,54,-208,-997,87
378149,53,-208,-999,87
378249,54,-207,-996,87
378348,55,-209,-998,87
378445,54,-208,-999,87
378545,57,-209,-997,87
378640,56,-210,-998,87
378739,53,-206,-998,87
378836,51,-209,-999,87
378934,47,-205,-998,87
379034,54,-209,-998,87
379134,57,-208,-998,87
379230,57,-208,-997,87
379327,55,-206,-999,87
379425,53,-204,-997,87
379524,57,-207,-996,87
379621,59,-209,-998,87
379719,54,-203,-998,87
379818,54,-204,-997,87
379917,58,-208,-997,87
380014,61,-209,-998,87
380110,54,-207,-998,87
380208,52,-206,-997,87
380304,55,-206,-997,87
380402,56,-208,-998,87
380505,56,-208,-997,87
380604,56,-208,-997,87
380701,53,-208,-998,87
380800,53,-207,-999,87
380898,54,-207,-998,87
380997,55,-208,-998,87
381094,56,-208,-999,87
381191,55,-207,-998,87
381289,55,-207,-997,87
381386,54,-208,-998,87
381485,55,-207,-998,87
381581,54,-209,-998,87
381678,54,-208,-999,87
381775,55,-207,-998,87
381873,56,-209,-998,87
381972,55,-208,-998,87
382070,55,-208,-997,87
382170,55,-208,-997,87
382268,55,-208,-998,87
382367,56,-208,-998,87
382465,56,-208,-998,87
382563,55,-208,-998,87
382663,53,-207,-997,87
382762,53,-206,-996,87
382860,54,-207,-997,87
382962,55,-207,-998,87
383061,56,-208,-997,87
383162,55,-207,-998,87
383261,54,-208,-999,87
383362,54,-207,-997,87
383462,52,-207,-997,87
383560,56,-207,-996,87
383657,56,-207,-997,87
383754,56,-207,-998,87
383854,56,-208,-998,87
383950,55,-208,-998,87
384049,52,-206,-997,87
384149,54,-207,-998,87
384249,53,-207,-997,87
384347,55,-207,-998,87
384445,55,-207,-997,87
384543,54,-207,-998,87
384642,54,-207,-997,87
384739,56,-207,-998,87
384837,54,-208,-998,87
384936,56,-207,-997,87
385032,55,-208,-999,87
385129,52,-207,-998,87
385227,52,-207,-996,87
385326,54,-207,-999,87
385425,56,-207,-999,87
385523,56,-207,-998,87
385618,53,-207,-997,87
385716,54,-207,-998,87
385814,54,-208,-998,87
385910,54,-207,-998,87
386007,55,-208,-998,87
386106,55,-206,-999,87
386202,55,-208,-999,87
386303,55,-207,-998,87
386399,55,-208,-998,87
386496,53,-207,-999,87
386593,54,-207,-998,87
386690,54,-207,-998,87
386788,55,-208,-997,87
386888,55,-206,-998,87
386987,55,-207,-997,87
387086,55,-208,-997,87
387185,54,-208,-998,87
387283,55,-208,-998,87
387380,54,-208,-999,87
387479,54,-209,-999,87
387578,54,-208,-999,87
387676,55,-207,-997,87
387776,54,-207,-997,87
387875,55,-207,-997,87
387973,56,-208,-998,87
388070,54,-207,-999,87
388170,54,-208,-998,87
388267,55,-207,-998,87
388364,56,-207,-996,87
388463,54,-206,-998,87
388561,54,-207,-998,87
388660,55,-207,-998,87
388758,56,-208,-998,87
388857,54,-208,-998,87
388953,55,-207,-998,87
389048,54,-207,-997,87
389148,54,-208,-998,87
389244,56,-207,-999,87
389343,56,-208,-998,87
389441,56,-208,-998,87
389538,55,-207,-999,87
389636,55,-208,-998,87
389732,55,-208,-999,87
389831,56,-208,-998,87
389931,55,-207,-998,87
390028,55,-207,-998,87
390129,56,-208,-998,87
390227,55,-208,-998,87
390324,54,-207,-998,87
390425,54,-208,-998,87
390525,54,-207,-997,87
390624,55,-207,-998,87
390721,55,-207,-997,87
390821,55,-207,-998,87
390919,55,-207,-999,87
391020,56,-206,-997,87
391117,54,-207,-997,87
391218,54,-207,-997,87
391316,55,-208,-999,87
391415,55,-208,-998,87
