t_ms,ax,ay,az,steps
2603,-127,-14,-1009,0
2645,-128,-14,-1010,0
2686,-129,-15,-1010,0
2730,-128,-15,-1008,0
2772,-127,-15,-1009,0
2813,-128,-14,-1010,0
2855,-127,-14,-1009,0
2901,-126,-14,-1009,0
2943,-128,-15,-1009,0
2988,-128,-14,-1010,0
3031,-127,-15,-1009,0
3072,-129,-15,-1010,0
3114,-127,-15,-1010,0
3155,-128,-14,-1009,0
3198,-128,-15,-1009,0
3239,-128,-14,-1010,0
3281,-128,-14,-1010,0
3322,-128,-15,-1010,0
3363,-128,-15,-1008,0
3405,-128,-14,-1010,0
3447,-127,-14,-1010,0
3488,-127,-14,-1010,0
3531,-127,-13,-1009,0
3572,-128,-14,-1008,0
3615,-129,-14,-1010,0
3657,-127,-14,-1009,0
3699,-127,-15,-1011,0
3740,-128,-15,-1010,0
3781,-128,-14,-1010,0
3823,-130,-14,-1009,0
3865,-128,-15,-1009,0
3906,-128,-15,-1009,0
3949,-128,-14,-1008,0
3990,-128,-14,-1010,0
4031,-128,-15,-1010,0
4074,-128,-13,-1009,0
4115,-127,-15,-1010,0
4157,-128,-14,-1010,0
4198,-128,-15,-1009,0
4240,-128,-14,-1009,0
4282,-128,-15,-1010,0
4324,-126,-15,-1010,0
4365,-128,-13,-1010,0
4406,-127,-14,-1008,0
4448,-127,-14,-1009,0
4490,-127,-14,-1010,0
4531,-128,-15,-1009,0
4573,-128,-15,-1009,0
4615,-128,-14,-1010,0
4656,-128,-14,-1009,0
4699,-127,-14,-1009,0
4740,-128,-14,-1008,0
4781,-127,-14,-1009,0
4822,-128,-14,-1009,0
4863,-128,-14,-1009,0
4906,-128,-15,-1007,0
4947,-128,-14,-1009,0
4988,-127,-15,-1010,0
5031,-126,-15,-1010,0
5072,-128,-15,-1011,0
5114,-128,-15,-1009,0
5155,-129,-16,-1013,0
5196,-125,-4,-995,0
5239,-130,-19,-1010,0
5280,-130,-18,-1016,0
5321,-128,-11,-1005,0
5363,-127,-17,-1009,0
5404,-125,-12,-1006,0
5446,-127,-13,-1006,0
5487,-127,-17,-1010,0
5529,-127,-14,-1006,0
5570,-129,-13,-1011,0
5612,-128,-17,-1011,0
5653,-128,-13,-1011,0
5694,-129,-16,-1009,0
5736,-127,-14,-1009,0
5778,-128,-14,-1007,0
5819,-129,-14,-1010,0
5860,-127,-14,-1007,0
5901,-129,-14,-1010,0
5942,-126,-13,-1008,0
5983,-126,-14,-1009,0
6024,-128,-14,-1008,0
6065,-127,-12,-1007,0
6110,-127,-15,-1010,0
6151,-128,-14,-1010,0
6192,-125,-14,-1007,0
6233,-129,-15,-1008,0
6274,-128,-14,-1011,0
6317,-128,-13,-1010,0
6359,-128,-14,-1008,0
6400,-128,-14,-1010,0
6441,-126,-16,-1009,0
6482,-129,-15,-1010,0
6528,-127,-14,-1008,0
6571,-128,-14,-1010,0
6612,-127,-13,-1010,0
6653,-128,-15,-1010,0
6694,-128,-14,-1009,0
6740,-128,-14,-1010,0
6784,-127,-14,-1010,0
6826,-128,-14,-1010,0
6867,-128,-14,-1010,0
6908,-128,-15,-1009,0
6950,-128,-15,-1009,0
6991,-127,-15,-1008,0
7032,-128,-14,-1010,0
7073,-128,-15,-1010,0
7114,-128,-14,-1010,0
7155,-128,-14,-1010,0
7197,-127,-15,-1009,0
7238,-127,-15,-1009,0
7279,-129,-14,-1010,0
7320,-128,-14,-1009,0
7361,-127,-15,-1010,0
7403,-127,-14,-1010,0
7444,-127,-14,-1011,0
7485,-128,-14,-1011,0
7526,-127,-15,-1008,0
7567,-127,-16,-1010,0
7608,-128,-14,-1009,0
7652,-128,-14,-1009,0
7693,-127,-14,-1009,0
7734,-128,-15,-1009,0
7775,-128,-15,-1009,0
7820,-127,-14,-1010,0
7865,-128,-14,-1010,0
7906,-127,-14,-1010,0
7947,-129,-14,-1010,0
7988,-127,-14,-1009,0
8029,-128,-15,-1009,0
8075,-128,-15,-1011,0
8116,-128,-15,-1010,0
8157,-128,-14,-1009,0
8198,-127,-15,-1009,0
8239,-127,-15,-1010,0
8284,-128,-14,-1009,0
8325,-128,-15,-1011,0
8366,-127,-15,-1009,0
8407,-127,-14,-1009,0
8448,-127,-15,-1009,0
8493,-128,-14,-1010,0
8534,-128,-14,-1010,0
8575,-128,-14,-1010,0
8616,-128,-14,-1009,0
8657,-128,-14,-1010,0
8699,-127,-14,-1009,0
8740,-128,-14,-1009,0
8781,-127,-14,-1010,0
8822,-127,-15,-1009,0
8863,-128,-14,-1010,0
8909,-128,-16,-1009,0
8950,-128,-15,-1009,0
8991,-128,-14,-1010,0
9032,-127,-13,-1007,0
9073,-128,-13,-1007,0
9115,-129,-17,-1013,0
9156,-128,-13,-1009,0
9197,-125,-12,-1004,0
9238,-131,-17,-1016,0
9279,-129,-15,-1011,0
9322,-128,-14,-1010,0
9364,-129,-16,-1012,0
9405,-128,-13,-1012,0
9446,-127,-15,-1009,0
9487,-127,-13,-1009,0
9528,-128,-14,-1010,0
9569,-128,-15,-1010,0
9610,-129,-14,-1010,0
9651,-128,-14,-1009,0
9692,-129,-14,-1009,0
9733,-127,-14,-1010,0
9774,-128,-14,-1010,0
9815,-127,-15,-1010,0
9856,-128,-15,-1010,0
9897,-128,-15,-1009,0
9938,-127,-14,-1009,0
9980,-128,-14,-1010,0
10023,-128,-13,-1008,0
10064,-128,-14,-1010,0
10105,-127,-14,-1010,0
10146,-127,-15,-1009,0
10187,-128,-15,-1009,0
10232,-127,-14,-1009,0
10273,-127,-14,-1009,0
10315,-129,-13,-1009,0
10356,-128,-15,-1010,0
10397,-127,-14,-1009,0
10438,-128,-14,-1010,0
10479,-127,-14,-1009,0
10520,-128,-14,-1010,0
10561,-127,-14,-1010,0
10602,-127,-14,-1008,0
10648,-128,-15,-1010,0
10689,-128,-15,-1009,0
10730,-124,-7,-997,0
10771,-129,-19,-1016,0
10812,-127,-14,-1012,0
10854,-128,-14,-1007,0
10895,-125,-14,-1011,0
10936,-127,-15,-1010,0
10977,-128,-15,-1009,0
11018,-126,-14,-1008,0
11059,-129,-15,-1014,0
11100,-127,-12,-1006,0
11143,-128,-14,-1008,0
11183,-128,-13,-1009,0
11224,-127,-13,-1008,0
11265,-127,-15,-1010,0
11307,-128,-15,-1008,0
11349,-129,-15,-1008,0
11390,-128,-13,-1008,0
11431,-129,-14,-1009,0
11472,-127,-14,-1008,0
11513,-127,-13,-1009,0
11556,-129,-14,-1009,0
11597,-127,-14,-1009,0
11638,-128,-13,-1009,0
11679,-128,-15,-1009,0
11720,-127,-14,-1009,0
11762,-128,-14,-1010,0
11803,-128,-13,-1009,0
11844,-126,-14,-1011,0
11885,-127,-13,-1009,0
11926,-126,-14,-1009,0
11967,-128,-15,-1009,0
12012,-128,-14,-1009,0
12053,-127,-14,-1010,0
12094,-127,-14,-1009,0
12135,-128,-13,-1010,0
12176,-128,-15,-1010,0
12218,-127,-14,-1010,0
12259,-127,-16,-1008,0
12300,-127,-15,-1010,0
12341,-129,-14,-1010,0
12382,-127,-15,-1011,0
12423,-127,-15,-1009,0
12468,-128,-14,-1007,0
12509,-128,-15,-1011,0
12550,-128,-14,-1009,0
12591,-127,-14,-1008,0
12632,-128,-15,-1011,0
12677,-128,-14,-1009,0
12718,-127,-14,-1010,0
12759,-128,-15,-1009,0
12800,-128,-14,-1009,0
12841,-127,-14,-1009,0
12883,-128,-15,-1009,0
12924,-128,-15,-1010,0
12965,-127,-14,-1009,0
13009,-129,-13,-1010,0
13050,-129,-15,-1009,0
13091,-127,-14,-1008,0
13136,-129,-14,-1009,0
13177,-127,-14,-1010,0
13218,-127,-15,-1007,0
13259,-129,-15,-1010,0
13300,-128,-15,-1010,0
13345,-128,-15,-1009,0
13386,-129,-15,-1010,0
13428,-127,-14,-1010,0
13469,-128,-14,-1009,0
13510,-127,-15,-1009,0
13552,-128,-10,-1009,0
13593,-128,-15,-1008,0
13634,-125,-13,-1010,0
13675,-129,-14,-1009,0
13716,-128,-14,-1010,0
13757,-127,-14,-1009,0
13802,-128,-14,-1009,0
13845,-128,-14,-1010,0
13886,-127,-14,-1010,0
13927,-128,-14,-1009,0
13968,-128,-15,-1008,0
14010,-128,-14,-1010,0
14051,-127,-15,-1009,0
14092,-128,-15,-1010,0
14133,-129,-15,-1010,0
14174,-127,-15,-1010,0
14219,-127,-14,-1009,0
14262,-128,-14,-1010,0
14303,-128,-15,-1010,0
14344,-128,-13,-1009,0
14385,-128,-14,-1009,0
14427,-127,-14,-1010,0
14468,-128,-14,-1008,0
14509,-128,-14,-1009,0
14550,-128,-14,-1010,0
14591,-128,-15,-1010,0
14633,-128,-14,-1010,0
14674,-127,-15,-1009,0
14715,-128,-14,-1010,0
14756,-128,-15,-1008,0
14797,-127,-14,-1010,0
14842,-128,-14,-1009,0
14885,-127,-13,-1010,0
14926,-129,-15,-1008,0
14967,-128,-14,-1010,0
15008,-128,-14,-1010,0
15054,-128,-14,-1011,0
15097,-128,-15,-1010,0
15138,-129,-14,-1010,0
15179,-128,-15,-1009,0
15220,-128,-14,-1009,0
15262,-128,-14,-1009,0
15303,-127,-15,-1009,0
15344,-128,-14,-1009,0
15385,-128,-14,-1009,0
15426,-128,-13,-1009,0
15468,-127,-14,-1009,0
15509,-128,-15,-1009,0
15550,-128,-15,-1009,0
15591,-128,-14,-1009,0
15632,-128,-14,-1009,0
15674,-127,-15,-1009,0
15715,-127,-15,-1009,0
15756,-128,-14,-1010,0
15797,-128,-14,-1010,0
15838,-128,-15,-1009,0
15880,-128,-15,-1010,0
15922,-128,-14,-1010,0
15963,-127,-15,-1010,0
16004,-128,-15,-1009,0
16045,-128,-13,-1009,0
16087,-128,-14,-1009,0
16129,-127,-15,-1009,0
16170,-128,-15,-1010,0
16211,-127,-15,-1010,0
16252,-127,-15,-1009,0
16294,-127,-14,-1010,0
16336,-129,-15,-1009,0
16377,-127,-15,-1010,0
16418,-128,-14,-1009,0
16459,-128,-14,-1010,0
16500,-128,-14,-1009,0
16542,-128,-14,-1011,0
16583,-128,-14,-1010,0
16624,-128,-15,-1009,0
16665,-129,-14,-1010,0
16706,-127,-15,-1010,0
16748,-127,-15,-1008,0
16789,-128,-15,-1010,0
16830,-127,-14,-1008,0
16871,-129,-15,-1009,0
16912,-128,-15,-1010,0
16954,-127,-15,-1009,0
16995,-128,-14,-1010,0
17036,-128,-15,-1010,0
17077,-127,-15,-1009,0
17119,-128,-15,-1009,0
17160,-128,-14,-1009,0
17201,-128,-15,-1009,0
17242,-129,-15,-1011,0
17283,-129,-14,-1009,0
17324,-128,-14,-1010,0
17366,-129,-14,-1009,0
17407,-127,-15,-1010,0
17448,-127,-15,-1010,0
17489,-127,-14,-1009,0
17530,-127,-15,-1009,0
17572,-127,-14,-1010,0
17613,-128,-14,-1010,0
17654,-126,-15,-1009,0
17695,-128,-14,-1011,0
17736,-128,-14,-1010,0
17778,-128,-15,-1009,0
17819,-128,-15,-1010,0
17860,-128,-15,-1009,0
17901,-128,-14,-1009,0
17942,-129,-15,-1008,0
17984,-127,-14,-1009,0
18025,-128,-15,-1010,0
18066,-128,-15,-1009,0
18107,-127,-15,-1009,0
18148,-128,-15,-1011,0
18196,-128,-14,-1010,0
18237,-127,-14,-1009,0
18278,-127,-13,-1010,0
18319,-127,-14,-1009,0
18361,-128,-15,-1011,0
18402,-128,-14,-1010,0
18443,-128,-13,-1009,0
18484,-128,-14,-1010,0
18525,-127,-14,-1009,0
18567,-128,-15,-1009,0
18608,-128,-14,-1010,0
18649,-128,-14,-1009,0
18690,-129,-13,-1010,0
18731,-128,-15,-1009,0
18773,-127,-14,-1010,0
18814,-129,-15,-1010,0
18855,-128,-14,-1009,0
18896,-127,-15,-1009,0
18937,-129,-15,-1010,0
18978,-128,-13,-1009,0
19023,-127,-14,-1010,0
19064,-128,-14,-1009,0
19105,-128,-14,-1009,0
19146,-127,-15,-1009,0
19187,-129,-15,-1010,0
19232,-130,-10,-1010,0
19273,-124,-16,-1009,0
19314,-125,-17,-1008,0
19355,-130,-18,-1015,0
19396,-127,-16,-1006,0
19438,-125,-15,-1010,0
19479,-132,-11,-1010,0
19520,-126,-13,-1008,0
19561,-125,-14,-1005,0
19602,-132,-15,-1009,0
19643,-125,-13,-1005,0
19684,-128,-13,-1012,0
19725,-130,-13,-1011,0
19766,-125,-5,-1003,0
19807,-133,-22,-1023,0
19848,-123,-12,-998,0
19889,-130,-17,-1014,0
19930,-131,-16,-1016,0
19971,-127,-14,-1007,0
20012,-129,-18,-1013,0
20053,-122,-13,-1006,0
20095,-133,-15,-1011,0
20136,-129,-12,-1010,0
20177,-127,-15,-1010,0
20218,-134,-13,-1011,0
20259,-124,-13,-1009,0
20300,-127,-16,-1009,0
20341,-131,-11,-1010,0
20382,-127,-15,-1008,0
20423,-127,-15,-1009,0
20464,-132,-11,-1012,0
20509,-126,-16,-1007,0
20550,-126,-14,-1008,0
20591,-132,-15,-1013,0
20632,-127,-15,-1009,0
20673,-124,-14,-1007,0
20714,-135,-14,-1008,0
20755,-128,-12,-1011,0
20796,-126,-18,-1009,0
20837,-125,-14,-1010,0
20878,-133,-16,-1011,0
20919,-127,-13,-1009,0
20960,-126,-16,-1008,0
21001,-130,-13,-1011,0
21042,-126,-15,-1009,0
21083,-129,-14,-1010,0
21128,-130,-12,-1011,0
21169,-126,-16,-1009,0
21210,-128,-14,-1010,0
21251,-130,-15,-1011,0
21292,-125,-15,-1009,0
21334,-128,-14,-1004,0
21375,49,-231,-1305,0
21416,-128,-111,-1044,1
21458,67,-249,-980,1
21499,-91,-22,-981,1
21541,-46,-203,-955,1
21582,-188,139,-1029,1
21623,-147,109,-994,1
21664,-55,-34,-1015,1
21705,-79,-44,-1012,1
21749,-61,-93,-1001,1
21790,-68,-65,-1025,1
21831,-82,-15,-1074,1
21872,-81,-34,-1011,1
21913,-74,-22,-1012,1
21955,-75,-2,-1033,1
21996,-72,-9,-1014,1
22037,-70,-4,-1017,1
22079,-72,-2,-1018,1
22120,-72,-5,-1014,1
22161,-68,-3,-1016,1
22202,-72,-2,-1016,1
22243,-69,-3,-1016,1
22285,-70,-2,-1016,1
22327,-71,0,-1016,1
22368,-73,2,-1028,1
22410,-77,-32,-984,1
22451,-79,-27,-1008,1
22492,-74,-20,-1016,1
22534,-80,-18,-1014,1
22575,-77,-26,-1011,1
22617,-73,-20,-1009,1
22658,-152,3,-1039,1
22699,-79,0,-1017,1
22740,-70,-18,-1015,1
22781,-64,-23,-1018,1
22822,-83,-4,-1015,1
22864,-71,0,-1016,1
22905,-81,0,-1016,1
22946,-78,-2,-1014,1
22987,-80,2,-1017,1
23028,-79,1,-1015,1
23070,-78,-2,-1013,1
23112,-80,5,-1018,1
23154,-76,3,-1016,1
23195,-79,-2,-1013,1
23237,-79,1,-1014,1
23278,-78,5,-1017,1
23320,-78,0,-1015,1
23365,-78,1,-1016,1
23406,-78,1,-1015,1
23447,-77,1,-1017,1
23488,-79,2,-1015,1
23529,-79,0,-1015,1
23570,-78,2,-1016,1
23611,-78,0,-1015,1
23652,-78,1,-1016,1
23693,-78,1,-1015,1
23734,-73,4,-1018,1
23776,-77,0,-1015,1
23817,-79,2,-1018,1
23859,-79,0,-1014,1
23901,-78,2,-1016,1
23943,-78,1,-1017,1
23984,-79,2,-1017,1
24025,-78,1,-1016,1
24066,-78,1,-1017,1
24107,-79,2,-1016,1
24148,-79,0,-1016,1
24189,-78,0,-1015,1
24230,-79,1,-1016,1
24271,-78,-1,-1015,1
24312,-78,0,-1017,1
24353,-80,0,-1015,1
24394,-78,0,-1015,1
24435,-81,0,-1014,1
24476,-80,0,-1016,1
24517,-82,0,-1015,1
24558,-59,-90,-1027,1
24599,-86,20,-1016,1
24640,-67,-18,-1017,1
24681,-81,1,-1017,1
24722,-81,1,-1016,1
24763,-73,4,-1016,1
24804,-84,0,-1018,1
24845,-80,-5,-1018,1
24886,-76,-7,-1013,1
24927,-115,24,-1015,1
24968,-83,-16,-1012,1
25009,-77,-15,-1014,1
25050,-87,-5,-1018,1
25091,-74,1,-1020,1
25132,-78,0,-1019,1
25173,-80,1,-1017,1
25215,-77,-2,-1014,1
25256,-79,-2,-1015,1
25297,-78,-4,-1014,1
25338,-78,0,-1016,1
25379,-81,6,-1016,1
25420,-78,-2,-1015,1
25461,-79,1,-1017,1
25502,-78,0,-1015,1
25543,-80,-1,-1015,1
25584,-78,0,-1015,1
25625,-79,0,-1015,1
25666,-78,-2,-1016,1
25707,-79,-1,-1015,1
25748,-80,-1,-1017,1
25789,-78,0,-1015,1
25830,-78,-1,-1016,1
25871,-78,0,-1018,1
25912,-83,-2,-1015,1
25953,-84,-7,-1017,1
25994,-83,-8,-1015,1
26035,-73,-2,-1016,1
26076,-73,15,-1018,1
26117,-78,11,-1015,1
26158,-64,11,-1016,1
26199,-68,-44,-1017,1
26240,-65,-29,-1017,1
26281,-96,19,-1015,1
26323,-107,-10,-1015,1
26364,-67,-18,-1015,1
26405,-65,-17,-1016,1
26447,-68,-16,-1017,1
26488,-64,-18,-1014,1
26530,-64,-15,-1017,1
26571,-64,-16,-1016,1
26612,-64,-17,-1015,1
26653,-68,-14,-1018,1
26694,-66,-16,-1016,1
26736,-64,-17,-1017,1
26777,-67,-14,-1017,1
26818,-65,-17,-1016,1
26859,-64,-17,-1016,1
26900,-67,-14,-1018,1
26941,-64,-16,-1017,1
26982,-65,-16,-1015,1
27023,-67,-15,-1016,1
27064,-65,-17,-1017,1
27105,-64,-16,-1016,1
27147,-65,-15,-1017,1
27188,-64,-17,-1016,1
27229,-65,-15,-1017,1
27270,-64,-16,-1016,1
27311,-64,-16,-1017,1
27353,-64,-16,-1017,1
27394,-65,-15,-1017,1
27435,-67,-16,-1018,1
27476,-65,-15,-1017,1
27517,-64,-15,-1016,1
27559,-65,-15,-1017,1
27600,-67,-16,-1017,1
27641,-64,-17,-1016,1
27682,-65,-16,-1016,1
27723,-64,-16,-1016,1
27764,-66,-16,-1016,1
27805,-64,-14,-1018,1
27846,-64,-18,-1015,1
27887,-64,-17,-1016,1
27928,-71,-15,-1016,1
27969,-64,-14,-1018,1
28010,-67,-16,-1017,1
28051,-71,-15,-1017,1
28092,-64,-16,-1016,1
28133,-66,-17,-1016,1
28174,-65,-15,-1017,1
28215,-65,-15,-1017,1
28256,-66,-17,-1016,1
28297,-65,-17,-1016,1
28338,-66,-16,-1016,1
28379,-64,-17,-1016,1
28420,-65,-15,-1017,1
28462,-66,-16,-1015,1
28506,-69,-16,-1016,1
28547,-66,-17,-1016,1
28588,-64,-16,-1015,1
28629,-71,-13,-1019,1
28670,-64,-17,-1015,1
28711,-64,-17,-1016,1
28752,-66,-14,-1018,1
28793,-65,-17,-1017,1
28834,-65,-15,-1016,1
28875,-67,-15,-1017,1
28916,-64,-17,-1015,1
28957,-65,-16,-1017,1
28998,-67,-16,-1017,1
29039,-64,-16,-1016,1
29080,-64,-17,-1017,1
29122,-64,-15,-1017,1
29163,-64,-17,-1016,1
29204,-64,-16,-1016,1
29245,-71,-17,-1016,1
29286,-64,-16,-1017,1
29327,-65,-15,-1016,1
29368,-64,-17,-1016,1
29409,-65,-15,-1015,1
29451,-67,-14,-1018,1
29492,-65,-17,-1015,1
29533,-66,-15,-1015,1
29574,-66,-15,-1018,1
29615,-64,-18,-1014,1
29657,-66,-15,-1018,1
29698,-68,-15,-1018,1
29739,-64,-17,-1015,1
29780,-66,-16,-1016,1
29821,-65,-16,-1016,1
29863,-64,-17,-1015,1
29904,-71,-14,-1018,1
29945,-64,-16,-1016,1
29986,-64,-18,-1015,1
30027,-71,-12,-1020,1
30069,-64,-17,-1015,1
30110,-65,-16,-1015,1
30151,-73,-12,-1020,1
30192,-64,-19,-1015,1
30233,-64,-16,-1017,1
30275,-72,-13,-1018,1
30316,-64,-19,-1015,1
30357,-66,-16,-1016,1
30398,-71,-15,-1018,1
30439,-64,-19,-1015,1
30481,-67,-15,-1017,1
30522,-64,-15,-1017,1
30563,-64,-18,-1015,1
30604,-69,-14,-1017,1
30645,-66,-16,-1017,1
30687,-65,-16,-1016,1
30728,-67,-15,-1018,1
30769,-64,-17,-1017,1
30810,-67,-16,-1017,1
30851,-64,-15,-1018,1
30892,-64,-17,-1015,1
30933,-65,-14,-1017,1
30974,-64,-15,-1017,1
31015,-66,-17,-1016,1
31056,-67,-15,-1015,1
31097,-64,-15,-1016,1
31138,-64,-17,-1016,1
31179,-67,-15,-1016,1
31220,-65,-16,-1017,1
31261,-64,-16,-1015,1
31302,-64,-14,-1019,1
31343,-67,-15,-1016,1
31384,-64,-16,-1017,1
31425,-65,-16,-1015,1
31466,-65,-15,-1017,1
31507,-70,-15,-1017,1
31548,-64,-14,-1018,1
31589,-65,-18,-1014,1
31630,-64,-18,-1015,1
31671,-64,-16,-1016,1
31712,-68,-14,-1017,1
31753,-64,-18,-1015,1
31794,-66,-14,-1016,1
31835,-67,-16,-1017,1
31876,-64,-17,-1016,1
31917,-67,-15,-1018,1
31958,-65,-16,-1016,1
31999,-64,-18,-1016,1
32040,-69,-14,-1019,1
32081,-64,-16,-1017,1
32122,-64,-17,-1015,1
32163,-65,-15,-1017,1
32204,-66,-17,-1015,1
32245,-64,-15,-1016,1
32286,-67,-15,-1017,1
32327,-64,-17,-1016,1
32369,-64,-15,-1016,1
32410,-64,-16,-1018,1
32451,-64,-17,-1015,1
32492,-67,-16,-1017,1
32533,-66,-16,-1018,1
32575,-64,-16,-1016,1
32616,-66,-15,-1017,1
32657,-66,-16,-1016,1
32698,-65,-16,-1017,1
32739,-65,-15,-1017,1
32780,-66,-15,-1017,1
32821,-64,-15,-1016,1
32862,-66,-15,-1018,1
32903,-64,-16,-1015,1
32944,-64,-15,-1015,1
32985,-66,-15,-1016,1
33026,-65,-17,-1016,1
33067,-64,-16,-1016,1
33108,-66,-16,-1017,1
33149,-66,-16,-1016,1
33190,-64,-15,-1017,1
33231,-66,-16,-1016,1
33272,-66,-16,-1017,1
33313,-64,-15,-1017,1
33354,-66,-15,-1015,1
33395,-65,-16,-1016,1
33436,-64,-16,-1017,1
33477,-64,-16,-1017,1
33518,-65,-15,-1016,1
33559,-64,-15,-1016,1
33600,-65,-16,-1017,1
33644,-64,-15,-1017,1
33685,-64,-16,-1017,1
33726,-66,-16,-1016,1
33767,-65,-15,-1017,1
33808,-64,-16,-1017,1
33849,-64,-15,-1017,1
33890,-66,-16,-1017,1
33931,-64,-17,-1016,1
33972,-66,-16,-1016,1
34013,-64,-15,-1018,1
34054,-66,-16,-1016,1
34095,-64,-15,-1017,1
34136,-67,-15,-1016,1
34177,-64,-16,-1016,1
34218,-65,-16,-1015,1
34259,-65,-16,-1017,1
34300,-66,-15,-1017,1
34341,-65,-16,-1017,1
34382,-64,-15,-1016,1
34423,-65,-16,-1016,1
34464,-66,-16,-1017,1
34505,-66,-16,-1016,1
34547,-64,-16,-1016,1
34588,-65,-16,-1016,1
34629,-66,-15,-1016,1
34670,-67,-16,-1018,1
34711,-66,-17,-1016,1
34752,-64,-15,-1017,1
34793,-66,-15,-1016,1
34834,-64,-16,-1017,1
34875,-65,-15,-1016,1
34916,-65,-16,-1017,1
34958,-65,-16,-1016,1
34998,-65,-16,-1015,1
35039,-65,-16,-1016,1
35080,-65,-16,-1017,1
35121,-66,-14,-1016,1
35162,-69,-13,-1018,1
35203,-64,-19,-1015,1
35244,-64,-15,-1016,1
35286,-67,-14,-1018,1
35327,-65,-15,-1017,1
35368,-65,-18,-1015,1
35409,-67,-13,-1019,1
35450,-67,-15,-1018,1
35494,-64,-17,-1015,1
35535,-67,-14,-1017,1
35576,-66,-17,-1016,1
35617,-64,-17,-1016,1
35658,-66,-13,-1018,1
35699,-64,-15,-1017,1
35740,-65,-16,-1015,1
35781,-66,-15,-1017,1
35822,-64,-16,-1015,1
35863,-64,-18,-1015,1
35904,-65,-11,-1018,1
35945,-69,-18,-1016,1
35986,-64,-16,-1015,1
36027,-72,-16,-1018,1
36068,-65,-14,-1017,1
36109,-64,-19,-1013,1
36150,-70,-11,-1019,1
36191,-65,-16,-1017,1
36232,-64,-18,-1014,1
36273,-71,-12,-1018,1
36314,-66,-15,-1017,1
36355,-65,-17,-1015,1
36396,-69,-13,-1018,1
36437,-64,-17,-1017,1
36478,-64,-18,-1016,1
36519,-71,-13,-1019,1
36560,-64,-16,-1016,1
36601,-65,-16,-1016,1
36642,-70,-15,-1018,1
36683,-64,-16,-1015,1
36724,-67,-16,-1017,1
36765,-66,-15,-1018,1
36806,-64,-15,-1015,1
36847,-66,-14,-1018,1
36888,-66,-15,-1016,1
36929,-65,-16,-1015,1
36970,-65,-13,-1018,1
37011,-65,-16,-1017,1
37052,-64,-16,-1015,1
37093,-64,-15,-1017,1
37134,-66,-16,-1015,1
37175,-64,-16,-1015,1
37216,-66,-15,-1016,1
37257,-64,-16,-1015,1
37298,-64,-16,-1015,1
37339,-66,-14,-1017,1
37380,-65,-15,-1017,1
37421,-64,-14,-1016,1
37462,-65,-15,-1016,1
37503,-65,-10,-1018,1
37545,-64,-16,-1015,1
37586,-64,-17,-1016,1
37627,-67,-14,-1016,1
37668,-65,-15,-1017,1
37709,-65,-15,-1015,1
37750,-67,-15,-1017,1
37791,-65,-16,-1017,1
37832,-66,-15,-1016,1
37873,-64,-17,-1016,1
37914,-64,-16,-1016,1
37955,-65,-16,-1017,1
38009,-65,-16,-1016,1
38050,-64,-15,-1015,1
38091,-66,-15,-1016,1
38132,-66,-15,-1016,1
38173,-66,-17,-1015,1
38214,-65,-16,-1017,1
38255,-64,-15,-1016,1
38296,-66,-16,-1018,1
38337,-66,-14,-1018,1
38378,-67,-15,-1016,1
38419,-64,-16,-1017,1
38460,-67,-15,-1018,1
38502,-66,-15,-1016,1
38542,-66,-16,-1015,1
38584,-64,-15,-1016,1
38625,-67,-15,-1017,1
38666,-64,-16,-1016,1
38707,-68,-15,-1017,1
38748,-65,-15,-1016,1
38792,-65,-15,-1017,1
38833,-65,-15,-1016,1
38874,-66,-16,-1016,1
38915,-65,-16,-1016,1
38956,-67,-15,-1018,1
38997,-65,-16,-1016,1
39038,-64,-15,-1016,1
39079,-67,-15,-1018,1
39120,-64,-20,-1014,1
39161,-65,-15,-1018,1
39202,-64,-12,-1016,1
39243,-64,-15,-1018,1
39284,-65,-15,-1017,1
39325,-67,-16,-1016,1
39366,-64,-17,-1016,1
39407,-64,-15,-1017,1
39448,-65,-14,-1018,1
39489,-64,-15,-1016,1
39530,-66,-15,-1018,1
39571,-66,-16,-1016,1
39613,-64,-15,-1016,1
39654,-67,-15,-1016,1
39695,-64,-16,-1017,1
39736,-64,-15,-1016,1
39777,-65,-15,-1016,1
39818,-64,-15,-1017,1
39859,-64,-15,-1016,1
39900,-66,-16,-1016,1
39941,-65,-15,-1016,1
39982,-66,-14,-1018,1
40023,-65,-15,-1016,1
40064,-64,-19,-1016,1
40105,-70,-16,-1016,1
40146,-64,-16,-1017,1
40187,-64,-18,-1016,1
40228,-66,-13,-1019,1
40269,-64,-16,-1016,1
40310,-64,-16,-1018,1
40351,-68,-14,-1018,1
40392,-64,-17,-1015,1
40433,-65,-15,-1018,1
40474,-67,-14,-1016,1
40515,-65,-16,-1016,1
40556,-64,-16,-1016,1
40597,-67,-14,-1016,1
40638,-64,-16,-1016,1
40679,-65,-15,-1016,1
40720,-66,-15,-1017,1
40761,-66,-16,-1016,1
40802,-64,-16,-1016,1
40843,-65,-16,-1017,1
40884,-64,-15,-1016,1
40925,-65,-15,-1017,1
40966,-65,-15,-1018,1
41007,-65,-16,-1016,1
41048,-66,-15,-1016,1
41089,-64,-15,-1016,1
41131,-66,-15,-1017,1
41172,-64,-16,-1017,1
41213,-64,-15,-1017,1
41254,-66,-15,-1016,1
41295,-67,-15,-1015,1
41336,-64,-15,-1016,1
41377,-66,-16,-1016,1
41418,-64,-16,-1016,1
41459,-64,-16,-1017,1
41500,-65,-15,-1016,1
41541,-66,-15,-1017,1
41582,-65,-15,-1017,1
41623,-64,-15,-1017,1
41664,-64,-15,-1017,1
41705,-64,-15,-1016,1
41746,-64,-16,-1016,1
41787,-66,-14,-1017,1
41828,-64,-15,-1016,1
41869,-65,-14,-1017,1
41910,-67,-15,-1016,1
41951,-65,-17,-1017,1
41992,-64,-16,-1016,1
42033,-66,-16,-1017,1
42074,-66,-16,-1016,1
42115,-65,-14,-1017,1
42156,-64,-16,-1017,1
42197,-64,-15,-1017,1
42238,-64,-16,-1016,1
42279,-67,-16,-1017,1
42320,-65,-16,-1017,1
42361,-64,-16,-1016,1
42402,-68,-15,-1017,1
42443,-65,-15,-1016,1
42484,-64,-16,-1017,1
42525,-66,-15,-1017,1
42566,-64,-16,-1016,1
42607,-66,-14,-1016,1
42648,-64,-15,-1016,1
42689,-67,-15,-1015,1
42730,-65,-16,-1017,1
42771,-64,-15,-1017,1
42812,-66,-15,-1015,1
42853,-63,-15,-1016,1
42895,-65,-16,-1016,1
42936,-66,-16,-1017,1
42977,-64,-14,-1016,1
43018,-64,-16,-1017,1
43059,-64,-15,-1018,1
43100,-66,-17,-1015,1
43141,-66,-15,-1017,1
43182,-65,-16,-1017,1
43223,-65,-16,-1015,1
43264,-65,-15,-1017,1
43305,-66,-15,-1017,1
43346,-64,-15,-1016,1
43387,-64,-15,-1017,1
43429,-64,-15,-1017,1
43470,-66,-14,-1017,1
43511,-66,-15,-1017,1
43552,-65,-16,-1016,1
43593,-65,-15,-1015,1
43635,-64,-15,-1016,1
43676,-64,-16,-1015,1
43717,-65,-14,-1018,1
43758,-64,-15,-1016,1
43799,-65,-14,-1017,1
43841,-64,-15,-1017,1
43882,-65,-16,-1018,1
43926,-64,-16,-1016,1
43967,-67,-15,-1016,1
44008,-65,-14,-1018,1
44050,-65,-16,-1017,1
44091,-65,-15,-1017,1
44132,-64,-16,-1017,1
44173,-65,-15,-1017,1
44214,-66,-16,-1016,1
44256,-63,-15,-1016,1
44297,-65,-17,-1016,1
44338,-67,-14,-1016,1
44379,-64,-16,-1016,1
44420,-64,-16,-1016,1
44461,-66,-15,-1016,1
44502,-66,-15,-1016,1
44543,-65,-14,-1017,1
44584,-64,-17,-1016,1
44626,-64,-15,-1015,1
44666,-64,-15,-1017,1
44707,-64,-16,-1017,1
44748,-64,-15,-1016,1
44789,-64,-16,-1017,1
44830,-64,-15,-1017,1
44871,-66,-16,-1016,1
44912,-64,-15,-1017,1
44953,-64,-16,-1017,1
44994,-64,-16,-1017,1
45035,-66,-16,-1016,1
45076,-64,-15,-1017,1
45117,-64,-16,-1017,1
45158,-67,-16,-1016,1
45199,-64,-16,-1018,1
45240,-65,-17,-1015,1
45281,-64,-15,-1017,1
45322,-64,-16,-1015,1
45363,-64,-15,-1017,1
45404,-65,-15,-1017,1
45445,-64,-14,-1018,1
45486,-65,-15,-1016,1
45527,-65,-15,-1016,1
45569,-65,-16,-1017,1
45610,-65,-16,-1017,1
45651,-66,-15,-1016,1
45692,-64,-16,-1017,1
45733,-64,-15,-1016,1
45774,-66,-15,-1016,1
45815,-65,-15,-1016,1
45856,-66,-14,-1016,1
45897,-65,-16,-1016,1
45938,-65,-15,-1017,1
45979,-65,-16,-1017,1
46020,-64,-15,-1016,1
46061,-64,-15,-1015,1
46102,-63,-15,-1017,1
46144,-65,-16,-1016,1
46185,-67,-15,-1017,1
46226,-63,-16,-1017,1
46267,-64,-15,-1017,1
46308,-66,-15,-1017,1
46350,-64,-15,-1016,1
46391,-64,-16,-1018,1
46432,-65,-15,-1017,1
46473,-64,-15,-1017,1
46514,-64,-14,-1016,1
46556,-65,-15,-1016,1
46597,-65,-16,-1016,1
46638,-64,-16,-1017,1
46679,-67,-15,-1016,1
46720,-64,-15,-1017,1
46761,-65,-15,-1016,1
46803,-65,-16,-1016,1
46844,-64,-15,-1016,1
46885,-64,-15,-1016,1
46926,-65,-15,-1017,1
46969,-64,-17,-1017,1
47010,-67,-14,-1017,1
47051,-66,-16,-1016,1
47092,-65,-15,-1017,1
47133,-66,-16,-1016,1
47175,-64,-15,-1016,1
47216,-66,-16,-1017,1
47257,-65,-16,-1017,1
47298,-65,-15,-1017,1
47339,-66,-16,-1017,1
47380,-63,-16,-1016,1
47421,-64,-16,-1016,1
47462,-66,-14,-1017,1
47503,-65,-16,-1017,1
47544,-64,-16,-1017,1
47585,-67,-15,-1016,1
47627,-63,-16,-1015,1
47668,-64,-15,-1016,1
47709,-66,-15,-1017,1
47750,-64,-16,-1016,1
47791,-67,-15,-1017,1
47832,-65,-15,-1017,1
47873,-64,-16,-1015,1
47914,-64,-15,-1016,1
47955,-64,-16,-1017,1
47996,-64,-15,-1016,1
48037,-64,-15,-1017,1
48078,-64,-15,-1017,1
48119,-64,-16,-1016,1
48160,-64,-15,-1018,1
48201,-66,-16,-1016,1
48242,-64,-15,-1017,1
48283,-65,-15,-1017,1
48324,-64,-16,-1015,1
48365,-65,-15,-1017,1
48406,-64,-16,-1016,1
48447,-64,-15,-1018,1
48488,-65,-15,-1017,1
48529,-64,-16,-1017,1
48570,-64,-15,-1017,1
48611,-65,-15,-1016,1
48654,-65,-15,-1016,1
48695,-63,-15,-1016,1
48736,-67,-16,-1016,1
48777,-65,-16,-1015,1
48818,-67,-14,-1018,1
48860,-65,-16,-1017,1
48901,-65,-15,-1016,1
48942,-66,-15,-1016,1
48983,-64,-16,-1017,1
49024,-66,-15,-1016,1
49069,-65,-16,-1016,1
49110,-64,-16,-1017,1
49151,-67,-15,-1018,1
49192,-63,-16,-1016,1
49233,-66,-14,-1017,1
49275,-65,-16,-1016,1
49316,-65,-15,-1016,1
49357,-67,-14,-1016,1
49398,-66,-16,-1016,1
49439,-63,-15,-1016,1
49481,-65,-15,-1016,1
49522,-63,-14,-1017,1
49563,-64,-17,-1016,1
49604,-65,-16,-1017,1
49645,-65,-15,-1015,1
49687,-64,-15,-1017,1
49728,-64,-15,-1015,1
49769,-64,-16,-1016,1
49810,-64,-15,-1017,1
49851,-64,-15,-1017,1
49893,-64,-15,-1016,1
49934,-65,-15,-1016,1
49975,-65,-16,-1019,1
50016,-65,-16,-1016,1
50057,-65,-16,-1015,1
50100,-66,-16,-1017,1
50141,-64,-15,-1016,1
50182,-64,-15,-1018,1
50223,-63,-13,-1016,1
50264,-66,-17,-1016,1
50306,-65,-15,-1018,1
50347,-66,-16,-1015,1
50388,-64,-15,-1018,1
50429,-66,-15,-1016,1
50470,-64,-16,-1015,1
50511,-65,-16,-1017,1
50552,-63,-16,-1015,1
50593,-66,-16,-1016,1
50634,-64,-15,-1017,1
50675,-65,-15,-1017,1
50716,-66,-14,-1017,1
50757,-65,-15,-1018,1
50798,-64,-15,-1015,1
50839,-66,-16,-1018,1
50880,-64,-15,-1017,1
50922,-65,-17,-1015,1
50963,-64,-16,-1016,1
51004,-64,-16,-1016,1
51045,-65,-15,-1017,1
51086,-67,-14,-1017,1
51127,-64,-16,-1016,1
51168,-66,-16,-1015,1
51209,-65,-15,-1016,1
51250,-65,-15,-1016,1
51291,-64,-16,-1017,1
51332,-64,-15,-1017,1
51373,-63,-16,-1016,1
51414,-64,-16,-1016,1
51455,-65,-15,-1016,1
51496,-65,-16,-1016,1
51537,-64,-15,-1016,1
51578,-67,-14,-1018,1
51619,-66,-15,-1017,1
51660,-64,-16,-1016,1
51701,-67,-16,-1014,1
51742,-66,-16,-1017,1
51784,-64,-14,-1017,1
51824,-65,-16,-1015,1
51865,-67,-16,-1016,1
51906,-64,-15,-1015,1
51947,-65,-14,-1017,1
51989,-66,-16,-1018,1
52030,-65,-14,-1015,1
52071,-65,-14,-1016,1
52112,-64,-17,-1015,1
52153,-65,-16,-1016,1
52195,-66,-15,-1017,1
52236,-65,-16,-1016,1
52277,-66,-17,-1015,1
52318,-66,-15,-1020,1
52359,-64,-16,-1017,1
52401,-65,-16,-1016,1
52442,-64,-15,-1016,1
52483,-65,-16,-1015,1
52524,-66,-15,-1017,1
52565,-64,-14,-1018,1
52607,-65,-16,-1016,1
52648,-65,-17,-1016,1
52689,-64,-15,-1017,1
52730,-65,-15,-1015,1
52771,-67,-15,-1016,1
52813,-64,-14,-1018,1
52854,-64,-16,-1015,1
52895,-66,-13,-1017,1
52936,-66,-16,-1017,1
52977,-64,-16,-1016,1
53018,-66,-15,-1017,1
53059,-66,-15,-1018,1
53100,-65,-15,-1016,1
53141,-68,-15,-1016,1
53182,-64,-16,-1016,1
53223,-67,-15,-1017,1
53264,-64,-15,-1017,1
53305,-64,-16,-1015,1
53346,-64,-15,-1016,1
53387,-65,-15,-1015,1
53428,-64,-16,-1015,1
53469,-65,-14,-1017,1
53510,-63,-15,-1017,1
53551,-65,-15,-1018,1
53592,-66,-14,-1017,1
53633,-65,-16,-1015,1
53674,-64,-15,-1018,1
53715,-65,-16,-1016,1
53756,-64,-16,-1015,1
53797,-65,-15,-1017,1
53838,-65,-15,-1018,1
53879,-64,-16,-1017,1
53920,-66,-15,-1016,1
53961,-65,-17,-1015,1
54002,-64,-14,-1017,1
54043,-63,-13,-1016,1
54084,-66,-14,-1018,1
54125,-63,-16,-1016,1
54166,-67,-16,-1017,1
54211,-64,-16,-1016,1
54252,-67,-17,-1015,1
54293,-66,-16,-1014,1
54334,-66,-12,-1018,1
54375,-64,-15,-1017,1
54416,-66,-15,-1017,1
54457,-67,-15,-1018,1
54499,-64,-15,-1015,1
54540,-67,-15,-1014,1
54581,-64,-15,-1016,1
54622,-65,-14,-1017,1
54663,-64,-14,-1017,1
54705,-66,-15,-1017,1
54746,-65,-16,-1016,1
54787,-65,-16,-1016,1
54828,-66,-15,-1016,1
54869,-65,-15,-1016,1
54911,-65,-15,-1017,1
54952,-65,-15,-1016,1
54993,-64,-16,-1016,1
55034,-67,-14,-1017,1
55075,-65,-16,-1016,1
55117,-64,-15,-1016,1
55224,-64,-15,-1017,1
55326,-63,-15,-1018,1
55428,-64,-15,-1017,1
55529,-66,-14,-1018,1
55631,-67,-15,-1017,1
55733,-67,-13,-1019,1
55834,-66,-16,-1015,1
55936,-66,-13,-1017,1
56038,-66,-15,-1017,1
56140,-64,-15,-1016,1
56242,-64,-16,-1014,1
56344,-64,-17,-1015,1
56446,-64,-16,-1017,1
56547,-65,-15,-1015,1
56649,-66,-16,-1017,1
56750,-67,-14,-1017,1
56852,-65,-14,-1015,1
56954,-65,-15,-1016,1
57056,-65,-15,-1017,1
57158,-63,-16,-1016,1
57260,-64,-16,-1015,1
57362,-66,-15,-1017,1
57464,-64,-16,-1017,1
57566,-64,-17,-1015,1
57668,-64,-16,-1015,1
57770,-67,-15,-1017,1
57872,-64,-15,-1017,1
57973,-69,-14,-1016,1
58075,-66,-15,-1017,1
58177,-66,-14,-1016,1
58279,-63,-16,-1015,1
58381,-64,-17,-1015,1
58483,-65,-17,-1016,1
58585,-66,-12,-1018,1
58687,-70,-13,-1018,1
58789,-70,-15,-1016,1
58891,-65,-16,-1016,1
58993,-66,-17,-1015,1
59095,-64,-15,-1017,1
59197,-67,-16,-1017,1
59298,-69,-14,-1018,1
59339,-67,-18,-1017,1
59382,-67,-15,-1018,1
59423,-67,-15,-1017,1
59464,-67,-17,-1017,1
59505,-65,-6,-1016,1
59546,-100,-201,-1019,1
59588,-110,42,-1168,1
59629,-220,72,-1109,1
59670,-101,1,-1304,1
59711,-64,107,-1352,2
59753,37,98,-885,2
59794,65,63,-885,2
59835,151,88,-698,2
59876,221,239,-843,2
59917,262,210,-916,2
59959,395,120,-811,2
60000,461,46,-921,2
60041,375,252,-893,2
60082,361,209,-786,2
60123,422,142,-817,2
60164,453,287,-1001,2
60205,372,269,-974,2
60246,318,248,-995,2
60287,257,260,-973,2
60328,269,245,-993,2
60369,261,260,-990,2
60410,270,240,-860,2
60451,316,237,-864,2
60492,369,228,-840,2
60534,390,236,-904,2
60576,357,239,-930,2
60618,475,216,-993,2
60660,442,244,-923,2
60701,470,225,-848,2
60742,439,254,-825,2
60784,454,244,-903,2
60825,460,214,-948,2
60868,423,241,-930,2
60910,420,249,-888,2
60952,711,217,-835,2
60993,508,163,-933,2
61036,473,204,-916,2
61077,494,171,-907,2
61119,469,176,-939,2
61160,453,191,-906,2
61202,474,171,-870,2
61245,461,164,-869,2
61287,464,153,-883,2
61329,480,160,-873,2
61370,484,161,-888,2
61411,498,146,-915,2
61454,490,142,-924,2
61496,461,159,-901,2
61537,478,147,-891,2
61578,475,150,-899,2
61619,463,154,-913,2
61660,447,167,-913,2
61701,463,168,-880,2
61743,481,155,-910,2
61784,476,154,-915,2
61825,470,160,-905,2
61870,472,156,-899,2
61911,479,147,-902,2
61952,479,143,-900,2
61993,472,142,-897,2
62034,482,139,-889,2
62075,498,127,-894,2
62116,500,131,-891,2
62157,518,117,-876,2
62198,523,104,-911,2
62239,516,115,-764,2
62281,509,102,-881,2
62322,508,123,-946,2
62364,496,135,-912,2
62406,475,135,-891,2
62448,502,121,-871,2
62489,495,126,-890,2
62530,484,131,-890,2
62572,497,130,-882,2
62614,490,136,-888,2
62655,489,134,-894,2
62697,497,126,-895,2
62739,487,129,-901,2
62780,491,128,-893,2
62821,486,129,-885,2
62862,487,124,-883,2
62904,496,119,-898,2
62945,479,130,-906,2
62986,477,131,-913,2
63028,492,131,-888,2
63069,484,129,-906,2
63111,483,130,-899,2
63153,491,124,-894,2
63194,485,124,-899,2
63235,479,134,-898,2
63277,484,135,-894,2
63318,479,133,-903,2
63359,481,131,-902,2
63401,476,136,-897,2
63441,489,127,-887,2
63482,484,129,-892,2
63523,484,129,-912,2
63564,489,128,-898,2
63606,482,130,-900,2
63646,485,128,-888,2
63687,487,125,-894,2
63728,476,131,-899,2
63769,481,127,-894,2
63810,483,127,-904,2
63851,483,130,-903,2
63892,479,133,-901,2
63933,486,127,-903,2
63974,487,123,-883,2
64015,479,125,-882,2
64056,489,121,-921,2
64097,551,102,-926,2
64138,506,67,-891,2
64179,542,2,-874,2
64220,533,-6,-848,2
64261,524,-25,-876,2
64302,543,-65,-876,2
64343,541,-58,-868,2
64384,542,-60,-853,2
64426,534,-54,-880,2
64468,529,-48,-888,2
64509,519,-25,-880,2
64550,515,-9,-900,2
64591,503,7,-899,2
64633,507,11,-897,2
64674,494,32,-887,2
64715,499,33,-889,2
64757,490,51,-916,2
64798,498,60,-904,2
64840,499,57,-896,2
64880,508,51,-892,2
64921,513,60,-879,2
64963,512,57,-885,2
65004,503,55,-907,2
65045,501,75,-897,2
65086,508,67,-886,2
65127,515,52,-888,2
65168,498,65,-890,2
65210,497,68,-893,2
65251,513,60,-884,2
65292,499,67,-897,2
65333,500,68,-892,2
65374,513,63,-898,2
65415,499,64,-900,2
65456,499,67,-896,2
65497,498,66,-887,2
65538,501,65,-902,2
65579,499,68,-895,2
65620,505,66,-894,2
65661,505,66,-897,2
65702,504,65,-884,2
65743,506,62,-891,2
65784,512,60,-892,2
65825,509,56,-894,2
65866,487,67,-862,2
65907,503,68,-916,2
65948,500,73,-927,2
65989,495,78,-894,2
66031,505,61,-921,2
66072,506,68,-891,2
66113,496,70,-888,2
66155,502,70,-877,2
66196,506,68,-883,2
66238,496,73,-918,2
66280,498,76,-891,2
66322,497,73,-902,2
66363,504,66,-899,2
66406,500,74,-885,2
66447,496,68,-895,2
66488,497,72,-897,2
66529,492,72,-902,2
66570,496,69,-900,2
66611,502,68,-891,2
66652,504,69,-887,2
66693,503,70,-903,2
66734,487,74,-898,2
66775,490,74,-881,2
66816,501,70,-882,2
66857,505,60,-911,2
66898,502,67,-912,2
66939,513,57,-888,2
66980,514,52,-881,2
67025,512,55,-909,2
67066,502,58,-892,2
67107,494,61,-953,2
67149,506,65,-919,2
67191,496,71,-872,2
67232,497,64,-901,2
67274,505,62,-892,2
67315,500,66,-886,2
67356,499,68,-896,2
67398,497,72,-895,2
67440,500,70,-903,2
67482,507,68,-891,2
67524,497,75,-892,2
67566,499,73,-900,2
67607,493,74,-901,2
67648,495,72,-891,2
67689,498,73,-885,2
67731,493,72,-906,2
67772,501,71,-898,2
67814,502,75,-881,2
67855,501,68,-902,2
67896,500,67,-904,2
67938,500,70,-898,2
67979,496,71,-895,2
68020,506,68,-899,2
68062,505,84,-877,2
68104,508,53,-915,2
68145,510,76,-944,2
68186,498,72,-944,2
68227,500,73,-870,2
68268,502,68,-874,2
68309,504,63,-891,2
68350,495,76,-894,2
68391,501,72,-891,2
68432,499,71,-904,2
68473,498,77,-888,2
68514,502,66,-898,2
68555,511,71,-888,2
68596,503,65,-900,2
68637,498,70,-902,2
68678,499,73,-889,2
68719,503,67,-896,2
68760,505,64,-905,2
68801,501,69,-900,2
68842,500,69,-862,2
68883,499,69,-889,2
68924,491,75,-908,2
68965,498,77,-923,2
69007,509,66,-928,2
69049,509,66,-885,2
69090,496,72,-871,2
69131,496,69,-897,2
69172,497,77,-899,2
69214,497,75,-911,2
69255,498,78,-898,2
69296,506,72,-889,2
69337,502,72,-902,2
69379,498,77,-893,2
69420,498,77,-897,2
69461,504,72,-890,2
69502,501,72,-902,2
69544,494,77,-907,2
69585,496,81,-882,2
69627,498,71,-890,2
69668,502,74,-903,2
69709,504,72,-889,2
69751,501,71,-896,2
69792,500,78,-894,2
69833,495,81,-892,2
69874,502,73,-901,2
69915,503,76,-895,2
69956,495,75,-899,2
69998,497,72,-894,2
70039,498,72,-896,2
70080,498,74,-893,2
70121,499,75,-890,2
70162,500,80,-888,2
70203,500,79,-900,2
70244,503,77,-888,2
70285,506,74,-885,2
70326,501,80,-878,2
70367,499,79,-900,2
70408,499,73,-919,2
70449,497,83,-901,2
70490,501,79,-885,2
70532,503,73,-897,2
70572,495,78,-900,2
70613,500,76,-889,2
70654,507,74,-889,2
70696,510,75,-889,2
70738,499,84,-904,2
70779,507,78,-886,2
70820,500,78,-891,2
70861,507,74,-879,2
70902,498,78,-899,2
70944,507,73,-894,2
70985,507,81,-891,2
71026,506,76,-886,2
71067,502,79,-899,2
71108,513,74,-880,2
71150,505,76,-890,2
71192,502,83,-900,2
71233,511,72,-889,2
71274,507,74,-894,2
71316,502,82,-898,2
71357,504,81,-886,2
71398,502,76,-886,2
71440,509,73,-894,2
71481,505,76,-892,2
71522,503,78,-887,2
71563,506,76,-892,2
71604,504,79,-904,2
71645,509,75,-888,2
71687,505,74,-894,2
71728,505,67,-892,2
71770,519,50,-874,2
71812,509,59,-872,2
71853,508,83,-899,2
71894,493,117,-896,2
71935,487,121,-845,2
71976,503,103,-887,2
72017,478,99,-943,2
72058,494,82,-882,2
72099,505,51,-888,2
72140,510,62,-902,2
72184,507,40,-889,2
72225,513,47,-887,2
72266,522,41,-890,2
72307,527,32,-893,2
72348,532,22,-876,2
72389,524,21,-881,2
72430,541,4,-892,2
72471,528,11,-878,2
72512,509,27,-902,2
72553,505,30,-920,2
72594,510,33,-897,2
72635,520,35,-881,2
72676,534,29,-885,2
72717,527,26,-865,2
72758,524,32,-876,2
72799,530,31,-891,2
72840,532,28,-889,2
72881,535,34,-870,2
72922,536,32,-869,2
72963,531,29,-881,2
73004,539,32,-885,2
73045,540,27,-877,2
73086,539,20,-875,2
73127,527,23,-867,2
73168,532,22,-869,2
73210,536,22,-873,2
73252,536,26,-887,2
73293,538,30,-888,2
73334,536,31,-889,2
73376,539,28,-892,2
73417,531,33,-880,2
73458,538,32,-874,2
73500,531,32,-867,2
73541,536,31,-880,2
73582,512,8,-944,2
73624,491,-9,-937,2
73665,556,-71,-843,2
73706,483,-23,-830,2
73748,459,10,-867,2
73789,444,8,-955,2
73830,456,10,-964,2
73871,467,11,-950,2
73912,437,9,-941,2
73953,433,23,-897,2
73994,441,17,-898,2
74035,462,9,-889,2
74076,463,0,-928,2
74117,464,13,-918,2
74158,460,12,-927,2
74199,457,14,-916,2
74240,451,17,-917,2
74281,469,9,-887,2
74322,427,0,-942,2
74364,436,-2,-967,2
74405,431,0,-976,2
74446,456,6,-903,2
74488,451,8,-890,2
74530,451,11,-928,2
74571,450,10,-944,2
74612,448,19,-932,2
74653,444,15,-918,2
74694,450,12,-912,2
74735,447,8,-936,2
74776,446,24,-917,2
74817,453,16,-931,2
74858,454,12,-924,2
74899,453,16,-913,2
74941,436,18,-934,2
74983,457,16,-911,2
75024,449,12,-940,2
75065,443,19,-926,2
75106,453,15,-927,2
75148,453,12,-926,2
75190,446,20,-925,2
75231,449,11,-932,2
75272,450,19,-925,2
75314,457,13,-922,2
75355,450,16,-936,2
75396,450,20,-927,2
75438,457,18,-914,2
75479,455,20,-921,2
75520,444,21,-921,2
75562,456,18,-918,2
75603,461,16,-924,2
75644,462,18,-926,2
75686,465,22,-906,2
75727,480,18,-915,2
75768,505,7,-883,2
75809,508,14,-893,2
75850,513,21,-902,2
75891,536,17,-881,2
75932,544,21,-877,2
75973,547,15,-875,2
76014,547,16,-874,2
76055,552,20,-866,2
76096,546,27,-912,2
76137,605,22,-853,2
76178,675,8,-746,2
76219,710,4,-714,2
76260,745,-16,-641,2
76301,805,-39,-609,2
76342,839,-50,-605,2
76383,815,-58,-586,2
76424,825,-64,-545,2
76465,877,-74,-535,2
76506,876,-95,-518,2
76547,891,-91,-454,2
76588,887,-88,-450,2
76630,919,-100,-447,2
76672,919,-98,-426,2
76713,911,-96,-428,2
76754,920,-103,-444,2
76795,914,-95,-423,2
76837,913,-92,-445,2
76879,926,-101,-446,2
76920,925,-97,-439,2
76961,910,-93,-439,2
77002,913,-100,-442,2
77043,915,-99,-452,2
77084,914,-97,-441,2
77126,914,-91,-446,2
77167,916,-96,-456,2
77208,914,-94,-453,2
77250,906,-91,-449,2
77291,901,-90,-454,2
77335,918,-98,-465,2
77377,901,-91,-450,2
77418,901,-93,-472,2
77459,901,-92,-436,2
77500,892,-105,-445,2
77541,861,-96,-587,2
77582,839,-102,-597,2
77623,813,-86,-555,2
77664,724,-58,-734,2
77705,687,-72,-767,2
77746,608,-51,-851,2
77787,510,-46,-895,2
77828,453,-56,-941,2
77869,389,-41,-945,2
77910,349,-22,-976,2
77952,288,-30,-970,2
77993,250,-32,-1004,2
78034,211,-22,-1005,2
78075,175,-12,-1029,2
78116,152,-9,-1006,2
78157,106,-8,-1029,2
78198,66,15,-1042,2
78239,-20,0,-1031,2
78280,-90,3,-1007,2
78322,-151,20,-1000,2
78364,-205,-7,-1018,2
78405,-242,19,-957,2
78446,-286,-3,-950,2
78487,-339,4,-947,2
78529,-323,-10,-955,2
78571,-316,9,-957,2
78612,-292,3,-947,2
78653,-263,23,-976,2
78694,-212,8,-1011,2
78735,-146,44,-1004,2
78776,-71,71,-1076,2
78818,96,158,-924,2
78859,218,127,-1015,2
78900,270,107,-998,2
78942,352,152,-937,2
78983,497,146,-965,2
79025,610,151,-856,2
79067,640,183,-789,2
79108,723,171,-674,2
79149,731,137,-693,2
79190,765,134,-683,2
79232,786,118,-696,2
79273,771,67,-629,2
79315,764,80,-655,2
79356,770,104,-680,2
79397,708,69,-755,2
79438,705,126,-678,2
79479,732,104,-703,2
79520,746,104,-690,2
79561,754,66,-673,2
79602,710,25,-656,2
79643,733,15,-719,2
79684,721,-7,-672,2
79725,675,-14,-755,2
79766,661,13,-870,2
79807,650,3,-924,2
79848,571,62,-910,2
79889,483,76,-898,2
79930,385,77,-946,2
79971,353,172,-988,2
80013,316,161,-975,2
80055,188,238,-956,2
80096,188,228,-945,2
80137,165,295,-923,2
80179,186,214,-980,2
80221,230,261,-924,2
80262,242,253,-960,2
80303,252,233,-951,2
80344,315,259,-916,2
80385,283,257,-914,2
80428,288,294,-947,2
80469,273,276,-945,2
80511,272,276,-963,2
80552,268,226,-956,2
80593,237,232,-959,2
80634,232,243,-952,2
80675,245,216,-951,2
80716,247,261,-943,2
80758,241,287,-982,2
80799,234,230,-1027,2
80841,221,259,-990,2
80883,239,267,-950,2
80924,207,239,-977,2
80965,239,208,-962,2
81007,222,189,-960,2
81053,212,192,-931,2
81094,287,183,-1071,2
81135,273,197,-956,2
81176,307,243,-941,2
81217,236,125,-977,2
81259,208,212,-969,2
81300,274,239,-1051,2
81341,226,224,-909,2
81382,255,225,-945,2
81423,300,213,-960,2
81531,324,237,-971,2
81632,308,232,-945,2
81734,223,263,-945,2
81836,563,341,-867,2
81938,595,237,-877,2
82040,637,245,-812,2
82142,717,409,-850,2
82184,629,307,-758,3
82226,738,259,-711,3
82267,623,322,-699,3
82309,652,303,-706,3
82350,720,258,-699,3
82391,686,332,-708,3
82432,684,345,-700,3
82473,703,288,-711,3
82514,689,296,-707,3
82555,635,1542,-1269,3
82597,477,695,133,4
82638,797,303,-496,4
82679,766,468,-557,4
82724,733,239,-937,4
82765,638,276,-1038,4
82807,570,205,-942,4
82848,520,246,-885,4
82889,479,202,-890,4
82933,502,208,-941,4
82974,454,148,-961,4
83016,403,173,-889,4
83057,449,197,-889,4
83098,437,197,-898,4
83139,398,229,-869,4
83180,457,257,-892,4
83222,490,268,-902,4
83263,419,178,-887,4
83304,566,317,-863,4
83345,480,268,-856,4
83386,453,251,-817,4
83427,548,261,-807,4
83468,520,230,-812,4
83509,493,199,-828,4
83550,576,206,-822,4
83591,536,200,-844,4
83632,513,194,-807,4
83673,514,196,-777,4
83714,458,151,-706,4
83755,347,45,-585,4
83796,460,-86,-296,4
83837,579,-93,-65,4
83878,879,-297,-102,4
83919,917,-257,43,4
83960,1110,-451,137,4
84001,1281,-468,-416,5
84042,1407,-319,-200,5
84083,1424,-141,325,5
84124,1376,-37,377,5
84165,1109,-13,563,5
84206,704,-86,1009,5
84247,953,-8,895,5
84288,1056,8,835,5
84329,785,-123,807,5
84370,436,-269,676,5
84411,832,-88,761,5
84452,823,-134,634,5
84493,105,-311,569,5
84534,446,-430,598,5
84575,462,-325,832,5
84616,548,-330,829,5
84657,664,-294,822,5
84698,746,-246,675,5
84739,711,-300,624,5
84780,700,-430,682,5
84821,660,-348,756,5
84862,626,-283,674,5
84903,788,-365,432,5
84944,764,-271,558,5
84985,745,-330,552,5
85026,705,-209,677,5
85067,657,-261,719,5
85108,625,-258,801,5
85149,483,-307,771,5
85190,786,-171,768,5
85231,752,-89,814,5
85272,664,-207,895,5
85314,751,-214,828,5
85355,706,-130,1078,5
85396,980,-103,964,6
85437,1168,4,617,6
85478,1198,-33,411,6
85520,1048,-205,77,6
85561,757,-387,-4,6
85602,923,-347,-78,6
85643,863,-583,-269,6
85684,1004,-487,-206,6
85725,770,-438,-425,6
85767,636,-394,-491,6
85808,615,-530,-622,6
85849,404,-452,-719,6
85890,370,-407,-691,6
85932,328,-400,-674,6
85973,352,-221,-746,6
86014,322,-208,-840,6
86055,346,-223,-868,6
86096,435,-161,-860,6
86139,446,-129,-871,6
86180,425,-72,-910,6
86221,438,-58,-901,6
86262,425,-36,-919,6
86303,398,-30,-952,6
86344,389,-39,-964,6
86385,377,-83,-970,6
86426,395,-45,-953,6
86467,389,-67,-945,6
86508,417,-65,-959,6
86549,412,-51,-927,6
86590,447,-107,-935,6
86631,442,-80,-820,6
86672,465,-63,-856,6
86715,403,-60,-951,6
86756,404,-48,-1032,6
86797,438,-25,-969,6
86840,439,-52,-942,6
86882,443,-63,-915,6
86923,441,-63,-912,6
86964,413,-33,-918,6
87007,417,-22,-916,6
87049,428,-34,-926,6
87090,409,-20,-956,6
87131,425,-32,-947,6
87173,424,-24,-945,6
87214,418,-17,-945,6
87255,426,-17,-943,6
87296,412,-14,-943,6
87337,410,-16,-944,6
87378,415,-17,-925,6
87419,414,-17,-945,6
87460,424,-34,-945,6
87501,424,-31,-945,6
87542,423,-30,-945,6
87583,469,-18,-918,6
87624,383,-41,-995,6
87665,413,-18,-971,6
87708,405,-23,-945,6
87750,416,-26,-943,6
87792,404,-25,-945,6
87834,405,-24,-942,6
87876,403,-27,-943,6
87919,407,-28,-945,6
87960,405,-15,-942,6
88002,396,-13,-945,6
88044,396,-21,-948,6
88091,403,-30,-945,6
88132,412,-45,-945,6
88173,395,-33,-954,6
88215,398,-30,-945,6
88256,396,-35,-945,6
88297,395,-27,-948,6
88339,400,-34,-945,6
88380,403,-38,-944,6
88421,398,-36,-945,6
88463,402,-32,-938,6
88504,401,-35,-945,6
88545,405,-38,-945,6
88586,396,-28,-945,6
88627,400,-36,-945,6
88668,413,-47,-942,6
88709,401,-41,-945,6
88750,415,-53,-945,6
88791,416,-55,-945,6
88832,416,-58,-941,6
88873,407,-50,-928,6
88914,411,-63,-945,6
88955,423,-49,-913,6
88996,409,-59,-930,6
89038,418,-61,-982,6
89078,413,-41,-949,6
89120,416,-52,-926,6
89162,416,-59,-931,6
89204,415,-49,-931,6
89246,406,-49,-945,6
89287,398,-48,-945,6
89329,410,-55,-939,6
89370,409,-51,-945,6
89411,403,-46,-945,6
89452,409,-41,-935,6
89493,408,-46,-944,6
89535,397,-43,-945,6
89577,410,-43,-937,6
89618,408,-45,-945,6
89659,411,-40,-945,6
89700,407,-45,-945,6
89742,406,-43,-945,6
89784,407,-49,-945,6
89825,410,-50,-945,6
89866,404,-45,-933,6
89907,416,-57,-935,6
89949,406,-49,-945,6
89990,399,-44,-945,6
90032,413,-60,-945,6
90073,415,-62,-938,6
90114,406,-51,-945,6
90156,423,-47,-945,6
90197,395,-51,-949,6
90238,399,-42,-933,6
90280,343,10,-965,6
90321,354,93,-900,6
90362,366,-83,-1128,6
90403,369,131,-932,7
90445,361,139,-757,7
90486,264,139,-973,7
90527,272,185,-1052,7
90569,355,102,-952,7
90610,353,100,-980,7
90651,406,55,-917,7
90692,331,132,-1000,7
90733,334,135,-901,7
90774,344,46,-976,7
90815,366,40,-1009,7
90856,375,56,-947,7
90897,362,74,-953,7
90939,370,25,-977,7
90980,353,60,-967,7
91021,360,43,-932,7
91062,357,12,-942,7
91103,405,-27,-944,7
91144,379,6,-950,7
91185,379,-38,-966,7
91227,396,-34,-947,7
91267,389,-55,-958,7
91308,388,-41,-945,7
91349,389,-59,-954,7
91390,371,-55,-893,7
91432,388,-47,-944,7
91474,353,-53,-1028,7
91516,386,-50,-952,7
91557,396,-74,-928,7
91599,397,-63,-948,7
91641,396,-82,-972,7
91682,394,-69,-959,7
91724,368,-60,-941,7
91765,391,-50,-948,7
91806,383,-23,-934,7
91847,423,-55,-882,7
91888,443,-142,-925,7
91929,391,-66,-1007,7
91971,399,-89,-962,7
92012,423,-80,-955,7
92053,408,-46,-886,7
92094,394,-57,-942,7
92135,390,-34,-960,7
92176,396,-48,-945,7
92217,396,-39,-943,7
92259,403,-47,-923,7
92300,396,-53,-965,7
92342,396,-41,-945,7
92383,396,-41,-945,7
92424,396,-23,-945,7
92466,395,-28,-951,7
92507,392,-32,-945,7
92548,396,-26,-945,7
92589,394,-41,-945,7
92630,398,-55,-945,7
92671,408,-41,-932,7
92712,382,-18,-950,7
92753,408,-67,-951,7
92794,467,-94,-895,7
92835,420,-70,-932,7
92876,401,-67,-946,7
92918,400,-71,-943,7
92959,354,-63,-969,7
93001,387,-44,-945,7
93042,396,-43,-935,7
93083,416,-44,-921,7
93124,447,-69,-944,7
93165,438,-110,-950,7
93206,445,-75,-877,7
93250,404,-95,-907,7
93291,397,-120,-949,7
93332,459,-184,-873,7
93374,451,-258,-895,7
93415,336,-67,-907,7
93456,470,-228,-872,7
93497,412,-128,-879,7
93538,478,-186,-903,7
93580,425,-153,-930,7
93621,474,-159,-923,7
93667,474,-73,-1056,7
93708,408,-153,-937,7
93749,521,-135,-891,7
93790,427,-8,-864,7
93831,441,-46,-925,7
93935,428,-24,-937,7
94035,355,25,-988,7
94137,172,-1,-754,7
94235,405,-234,-685,7
94334,275,-65,-1039,7
94433,203,-112,-912,7
94531,376,-679,-1171,7
94631,-70,-473,-1150,8
94728,1230,-614,-1322,8
94828,769,-1223,-438,8
94925,-154,-295,-395,8
95022,460,-789,-335,8
95119,1031,-972,-944,8
95218,234,-844,-428,9
95315,298,-744,334,9
95414,203,-470,-599,9
95509,968,-732,150,9
95608,818,-367,-8,10
95707,874,-438,97,10
95805,976,-597,127,10
95904,913,-390,70,10
96003,932,-219,-201,10
96103,830,-132,-323,10
96201,1068,417,83,10
96244,746,185,-66,10
96286,822,247,-128,10
96327,923,362,48,10
96368,993,-71,290,10
96410,1010,-267,139,10
96452,955,-507,0,10
96493,899,-581,17,10
96534,887,-594,142,10
96575,615,-704,150,10
96616,587,-809,127,10
96658,652,-728,290,10
96699,880,-641,76,10
96740,180,-519,216,10
96781,984,-815,111,10
96822,1258,-223,-31,11
96863,663,-469,59,11
96904,948,-402,-25,11
96945,1222,-164,55,11
96986,1055,-365,39,11
97027,655,-567,-339,11
97068,724,-543,-17,11
97109,906,-415,-504,11
97150,516,-732,-98,11
97191,461,-1048,67,11
97232,394,-1223,-389,11
97273,29,-1176,-234,12
97314,-111,-953,-113,12
97355,-347,-840,-124,12
97396,-171,-883,127,12
97437,-155,-995,20,12
97478,-167,-984,-30,12
97519,-158,-896,-7,12
97560,-609,-998,-172,12
97601,-92,-986,-190,13
97642,-182,-990,-254,13
97683,-270,-958,3,13
97724,-233,-943,-34,13
97765,-250,-949,-57,13
97806,-273,-916,-142,13
97847,-318,-833,-182,13
97888,-249,-989,-66,13
97930,-361,-878,-28,13
97971,-440,-895,-39,13
98012,-404,-912,-51,13
98053,-419,-911,-61,13
98094,-444,-925,-10,13
98136,-412,-1016,-58,13
98177,-315,-1125,-153,13
98218,-195,-1078,-64,13
98259,-235,-959,108,13
98300,-287,-1115,191,13
98341,-315,-1029,124,13
98382,-507,-1162,74,13
98423,-484,-1025,138,14
98464,-314,-946,55,14
98505,-154,-878,-131,14
98546,-2,-959,-90,14
98588,-124,-919,-33,14
98629,-265,-777,-55,14
98670,-529,-603,57,14
98711,-521,-624,278,14
98752,-173,-845,257,14
98794,101,-854,296,14
98835,481,-1371,151,14
98876,363,-1202,230,15
98917,134,-1051,313,15
98959,-456,-1400,164,15
99001,69,-1502,202,15
99042,-1505,-114,489,15
99083,-584,-409,-639,15
99124,-163,-1334,-320,15
99165,221,-1272,266,16
99206,-327,-843,-145,16
99247,-499,-911,-301,16
99288,-365,-872,100,16
99329,-182,-947,-20,16
99370,-190,-924,-63,16
99411,-296,-916,28,16
99452,-423,-829,51,16
99493,-515,-834,1,16
99534,-478,-981,-29,16
99575,-510,-1115,-34,16
99616,-477,-909,57,17
99657,-363,-1112,24,17
99698,-409,-1263,61,17
99739,-307,-830,375,17
99783,-679,-964,171,17
99824,-814,-870,204,17
99865,-1190,-838,267,17
99906,-415,-899,-22,17
99947,-334,-813,13,17
99988,-461,-844,-16,17
100029,-510,-676,45,17
100070,-524,-473,-49,17
100111,-645,-236,101,17
100152,-540,-367,250,17
100193,-134,-1012,393,17
100234,125,-1682,1149,17
100275,77,-1228,427,18
100316,-230,-894,210,18
100357,-876,-1073,104,18
100398,-521,-1670,451,18
100439,-1118,82,-70,18
100480,-714,-382,-734,18
100521,-466,-1161,-363,18
100562,-46,-1479,250,18
100603,-504,-727,-193,18
100644,-663,-692,-245,18
100685,-514,-823,35,18
100726,-389,-939,-48,18
100767,-322,-926,-73,18
100808,-400,-892,2,18
100849,-542,-759,-56,18
100891,-643,-772,-96,18
100932,-669,-766,-62,18
100973,-622,-833,-20,18
101014,-539,-952,-95,18
101055,-504,-935,0,18
101097,-336,-1163,19,18
101138,-383,-1087,241,19
101179,-386,-823,439,19
101220,-640,-948,96,19
101261,-890,-1050,11,19
101302,-932,-838,163,19
101344,-269,-990,68,19
101385,-192,-882,-137,19
101426,-299,-885,-112,19
101467,-373,-822,-70,19
101509,-331,-747,75,19
101550,-540,-633,135,19
101591,-478,-691,231,19
101632,-180,-922,337,19
101673,-82,-1174,570,19
101715,-7,-1131,122,20
101756,-339,-819,-115,20
101797,-778,-905,-83,20
101838,-909,-1110,361,20
101879,-737,-538,-109,20
101922,-435,-1037,-62,20
101963,-147,-1152,-20,20
102004,-177,-951,-128,20
102045,-344,-932,-167,20
102086,-443,-886,-178,20
102127,-625,-801,-122,20
102168,-768,-750,-48,20
102209,-532,-849,-66,20
102250,-362,-773,-225,20
102291,-636,-783,-216,20
102332,-573,-761,-251,20
102373,-588,-802,-204,20
102414,-502,-834,-89,20
102455,-553,-791,-92,20
102496,-574,-796,-73,20
102537,-631,-827,-23,20
102578,-504,-926,-11,20
102619,-616,-1153,37,20
102660,-593,-1003,149,21
102701,-304,-1025,253,21
102742,-119,-954,220,21
102783,-390,-1060,57,21
102824,-539,-1031,-105,21
102865,-88,-965,-339,21
102906,-180,-1118,-320,21
102947,-498,-1199,31,21
102989,-525,-1082,-85,22
103030,-737,-812,-117,22
103071,-803,-688,26,22
103112,-793,-524,230,22
103153,-663,-389,291,22
103195,-207,-687,218,22
103236,168,-1244,274,22
103278,447,-1363,376,23
103319,24,-899,204,23
103360,-535,-1028,36,23
103401,-595,-1633,788,23
103442,-1095,-209,-58,23
103483,-854,-273,-797,23
103524,39,-1434,-203,23
103565,-119,-1132,540,23
103607,-545,-617,-300,23
103648,-465,-743,-290,23
103689,-353,-1015,-56,23
103730,-267,-896,-147,23
103771,-305,-950,-95,23
103812,-504,-784,-23,23
103853,-628,-743,1,23
103894,-532,-827,-113,23
103935,-461,-949,-159,23
103976,-487,-1014,-163,23
104017,-514,-978,-25,23
104058,-338,-1145,70,23
104100,-215,-1219,122,24
104141,-239,-896,441,24
104182,-627,-1168,85,24
104223,-701,-1232,-83,24
104264,-1305,-851,321,24
104305,-369,-1040,-25,24
104346,-449,-825,-124,24
104387,-409,-762,52,24
104428,-360,-597,-95,24
104469,-447,-331,-156,24
104510,-556,-244,-9,24
104551,-456,-682,228,24
104592,-21,-1281,369,24
104633,6,-1500,740,25
104674,112,-1181,404,25
104715,-189,-944,59,25
104756,-849,-1264,-147,25
104797,200,-1612,223,25
104838,-1581,420,-172,25
104879,-613,-574,-812,25
104923,205,-1782,125,25
104964,-336,-758,-87,25
105005,-559,-626,-455,25
105046,-536,-860,-219,25
105087,-348,-937,-145,25
105128,-239,-898,-269,25
105169,-297,-922,-213,25
105210,-482,-822,21,25
105251,-501,-834,-104,25
105292,-431,-923,-257,25
105333,-507,-969,-235,25
105374,-427,-1003,-158,25
105415,-420,-898,27,25
105456,-323,-1064,161,25
105497,-106,-1078,163,25
105539,-334,-1373,-61,25
105580,-803,-1297,-287,26
105621,-1123,-779,274,26
105662,-302,-964,-17,26
105703,-395,-1003,-257,26
105744,-420,-930,-107,26
105785,-329,-755,-76,26
105826,-393,-488,-178,26
105867,-511,-359,22,26
105908,-415,-561,235,26
105949,-109,-973,267,26
105990,-58,-978,204,26
106031,-11,-1156,491,26
106072,155,-1214,362,27
106113,-51,-915,185,27
106154,-890,-1221,-48,27
106195,-279,-1898,1015,27
106236,-861,-30,-580,27
106277,-827,-151,-515,27
106318,129,-1549,-407,27
106359,246,-1289,341,28
106400,-547,-731,-452,28
106441,-671,-695,-189,28
106482,-543,-884,-130,28
106523,-254,-984,-218,28
106565,-127,-972,-243,28
106606,-348,-926,-136,28
106647,-509,-812,-151,28
106688,-574,-840,-241,28
106729,-489,-889,-246,28
106770,-449,-874,-329,28
106811,-340,-918,-411,28
106852,-328,-918,-333,28
106893,-338,-905,-343,28
106934,-582,-1043,-191,28
106975,-743,-787,-87,29
107016,-936,-794,-180,29
107057,-843,-725,-226,29
107098,-688,-767,-311,29
107139,-508,-884,-280,29
107180,-163,-863,-7,29
107221,-124,-894,145,29
107262,-313,-856,208,29
107303,-407,-773,119,29
107344,-401,-745,181,29
107386,-333,-824,259,29
107427,-303,-909,322,29
107468,-105,-872,265,29
107509,-157,-855,231,29
107550,-175,-871,241,29
107591,-197,-885,244,29
107632,-177,-889,186,29
107673,-169,-809,102,29
107714,-262,-887,66,29
107755,-511,-1503,297,29
107797,493,-1436,662,30
107838,-622,-737,-9,30
107879,-763,-322,-124,30
107920,-151,-1191,-244,30
107961,-4,-1264,-17,30
108002,-517,-762,-240,30
108044,-280,-928,-344,30
108085,-207,-962,-230,30
108126,-301,-944,-106,30
108167,-308,-923,-117,30
108210,-227,-965,-160,30
108251,-192,-988,-147,30
108292,-250,-904,-152,30
108333,-440,-830,-159,30
108374,-510,-809,-220,30
108415,-343,-927,-153,30
108456,-374,-1031,-183,30
108497,-504,-1012,-164,30
108538,-416,-1063,11,30
108579,-287,-1308,-66,30
108620,-333,-931,311,31
108661,-410,-897,69,31
108702,-668,-1217,-164,31
108743,-815,-943,-139,31
108784,-258,-962,22,31
108825,-164,-986,-113,31
108866,-256,-880,-108,31
108907,-242,-812,-34,31
108948,-381,-583,-87,31
108989,-567,-362,-37,31
109030,-658,-385,106,31
109071,-325,-883,233,31
109112,-10,-1371,842,31
109153,336,-1426,579,32
109194,206,-1057,207,32
109235,-363,-896,-12,32
109276,-775,-1262,-60,32
109317,226,-1386,129,32
109358,-1425,125,-302,32
109399,-604,-623,-914,32
109440,397,-1964,324,32
109482,-77,-824,108,32
109523,-465,-678,-422,32
109564,-434,-863,-425,32
109605,-206,-991,-33,32
109646,-170,-914,-248,32
109687,-239,-953,-252,32
109729,-516,-812,-98,32
109770,-537,-821,-145,32
109811,-278,-977,-236,32
109852,-268,-1004,-144,32
109894,-418,-982,-152,32
109935,-260,-1179,-100,32
109976,-99,-1402,41,33
110017,-194,-995,361,33
110061,-760,-1239,-64,33
110103,-1025,-1206,-244,33
110144,-471,-843,76,33
110185,-180,-1074,-7,33
110226,-273,-892,-154,33
110268,-219,-792,-81,33
110310,-291,-559,-241,33
110351,-474,-307,-141,33
110392,-612,-342,115,33
110433,-190,-912,367,33
110474,187,-1336,789,33
110516,41,-1245,687,34
110557,68,-1091,291,34
110598,-780,-1357,-123,34
110639,552,-1652,485,34
110680,-1037,226,-721,34
110721,-606,-775,-613,34
110762,213,-1723,-229,34
110803,-135,-909,72,34
110844,-472,-716,-360,34
110885,-396,-899,-231,34
110926,-264,-938,-118,34
110967,-165,-952,-195,34
111008,-206,-938,-257,34
111049,-405,-859,-158,34
111090,-607,-818,-58,34
111131,-377,-852,-171,34
111172,-307,-983,-278,34
111213,-325,-1055,-232,34
111254,-357,-1014,-28,34
111295,-231,-1237,-36,34
111336,-145,-1379,60,35
111377,-166,-1008,155,35
111418,-581,-1135,-58,35
111459,-1024,-1184,-228,35
111500,-501,-794,52,35
111541,-261,-1041,-40,35
111582,-227,-870,-218,35
111623,-210,-787,-283,35
111664,-257,-773,-187,35
111705,-331,-653,-90,35
111746,-547,-586,25,35
111787,-417,-789,159,35
111828,-72,-921,218,35
111869,58,-1168,630,35
111910,455,-1427,309,36
111951,155,-1041,177,36
111993,-231,-893,-283,36
112034,-764,-1042,-84,36
112075,-55,-1500,960,36
112116,-617,-146,-649,36
112157,-101,-498,-429,36
112199,-19,-1768,-116,36
112240,90,-909,-283,37
112281,-188,-884,-492,37
112322,-335,-892,-266,37
112363,-478,-822,-399,37
112405,-509,-909,-271,37
112446,-378,-980,-331,37
112487,-403,-869,-382,37
112528,-434,-907,-279,37
112569,-374,-910,-245,37
112610,-345,-876,-272,37
112651,-433,-785,-267,37
112692,-479,-817,-227,37
112733,-516,-838,-194,37
112774,-444,-890,-163,37
112815,-321,-994,-132,37
112856,-236,-1487,25,37
112897,-376,-1025,375,38
112938,-313,-900,222,38
112979,-501,-893,-1,38
113020,-559,-1073,-197,38
113061,-185,-972,-309,38
113103,-109,-1029,-65,38
113144,-347,-1110,-88,38
113185,-360,-962,-171,38
113226,-411,-876,-41,38
113267,-488,-745,-3,38
113308,-608,-575,37,38
113350,-528,-533,197,38
113391,-161,-774,230,38
113432,112,-1227,724,38
113473,265,-1248,510,39
113514,-103,-869,181,39
113555,-445,-1387,-29,39
113596,-109,-1773,481,39
113637,-1587,176,-546,39
113678,-433,-703,-696,39
113719,469,-1719,-5,39
113760,-59,-959,41,39
113801,-427,-703,-329,39
113842,-341,-924,-290,39
113883,-200,-954,-157,39
113924,-144,-964,-250,39
113965,-160,-1000,-187,39
114006,-367,-859,-107,39
114047,-462,-836,-137,39
114088,-310,-883,-264,39
114129,-263,-994,-257,39
114170,-335,-1028,-104,39
114211,-350,-992,-100,39
114252,-275,-1093,-26,39
114293,-122,-1351,17,39
114334,-86,-1105,291,40
114375,-561,-1203,33,40
114416,-932,-1327,-243,40
114457,-591,-785,-93,40
114498,-229,-1129,-15,40
114539,-232,-909,-203,40
114580,-185,-858,-142,40
114621,-276,-735,-192,40
114662,-426,-451,-175,40
114703,-536,-393,-3,40
114744,-496,-675,271,40
114785,-25,-1069,348,40
114826,88,-1436,819,40
114867,174,-1249,485,41
114909,77,-1003,226,41
114950,-335,-990,56,41
114991,-677,-1572,499,41
115032,-303,-466,-729,41
115073,-1735,170,-225,41
115114,-123,-1289,-715,41
115155,547,-1642,191,41
115199,-299,-794,-278,41
115240,-468,-773,-378,41
115281,-414,-950,-149,41
115322,-104,-980,-185,41
115363,-115,-942,-302,41
115404,-315,-940,-200,41
115445,-526,-814,-115,41
115486,-407,-869,-159,41
115527,-313,-979,-237,41
115568,-255,-1011,-199,41
115609,-249,-1038,-78,41
115650,-285,-1018,86,41
115691,-90,-1294,157,41
115732,-4,-1139,173,42
115773,-625,-1428,-43,42
115814,-1098,-1371,-274,42
115855,-447,-769,8,42
115896,-209,-1080,-153,42
115937,-195,-979,-207,42
115978,-223,-863,-163,42
116019,-285,-658,-199,42
116060,-442,-359,-121,42
116101,-523,-361,26,42
116142,-262,-836,350,42
116183,48,-1045,284,42
116224,54,-1218,669,42
116265,305,-1237,395,43
116306,171,-1011,264,43
116347,-532,-1201,-138,43
116388,-636,-1876,678,43
116429,-907,-166,-485,43
116470,-1004,245,-723,43
116511,221,-1640,-435,43
116552,264,-1374,506,43
116593,-395,-705,-316,43
116634,-419,-791,-333,43
116675,-328,-1031,-27,43
116716,-162,-965,-224,43
116757,-2,-1006,-322,43
116798,-108,-964,-210,43
116839,-346,-891,-181,43
116880,-466,-834,-204,43
116921,-410,-880,-203,43
116962,-265,-931,-204,43
117003,-257,-940,-170,43
117045,-336,-917,-200,43
117086,-307,-954,-168,43
117127,-281,-957,-74,43
117168,-223,-1270,-133,43
117209,-141,-1202,131,44
117250,-328,-906,179,44
117291,-530,-1164,-213,44
117332,-550,-1150,-304,44
117373,-418,-1000,-3,44
117414,-363,-1049,-82,44
117455,-358,-903,-168,44
117496,-453,-822,-71,44
117537,-497,-682,38,44
117578,-539,-586,143,44
117620,-283,-921,293,44
117661,72,-997,373,44
117702,-85,-962,191,44
117743,-112,-910,20,44
117784,-310,-744,135,44
117826,-298,-840,15,44
117868,-332,-828,-169,44
117909,-409,-910,-190,44
117950,129,-1843,464,44
117991,192,-923,-229,45
118032,-732,-636,-518,45
118073,-342,-853,-98,45
118114,167,-1369,23,45
118155,-301,-905,-225,45
118196,-283,-937,-140,45
118237,-506,-889,-215,45
118278,-449,-863,-182,45
118319,-149,-963,-232,45
118360,-10,-1063,-232,45
118401,-183,-1016,-51,45
118442,-336,-1007,-42,45
118483,-528,-980,-69,45
118524,-595,-905,-188,45
118565,-231,-1039,-184,45
118606,-24,-1120,149,45
118647,-405,-933,110,45
118688,-688,-737,109,45
118729,-579,-717,78,45
118770,-416,-896,-30,45
118811,-387,-896,-40,45
118852,-469,-807,-41,45
118893,-345,-822,-127,45
118934,-8,-975,-163,45
118975,85,-1010,-33,45
119016,-129,-977,300,45
119057,-168,-861,189,45
119098,-77,-919,256,45
119139,-3,-881,200,45
119180,-185,-1072,202,45
119221,-324,-1527,672,45
119262,-235,-934,2,46
119304,-707,-420,-336,46
119345,-246,-1065,-274,46
119386,44,-1240,-128,46
119427,-419,-837,-194,46
119468,-343,-824,-262,46
119509,-167,-982,-162,46
119550,-221,-979,-149,46
119591,-223,-931,-175,46
119632,-221,-947,-236,46
119674,-230,-940,-282,46
119716,-404,-839,-238,46
119757,-456,-829,-114,46
119798,-221,-919,-159,46
119839,-186,-986,-210,46
119880,-367,-1078,-230,46
119923,-467,-1009,-115,46
119964,-199,-1363,-231,46
120005,-269,-1234,90,47
120046,-502,-890,432,47
120087,-408,-1104,-185,47
120129,-799,-1238,-151,47
120170,-511,-927,-83,47
120211,-200,-1062,-125,47
120252,-197,-854,-186,47
120293,-166,-796,-115,47
120338,-238,-622,-179,47
120379,-406,-403,-140,47
120420,-574,-347,49,47
120461,-241,-819,190,47
120502,162,-1277,479,47
120545,321,-1522,755,48
120586,271,-1135,358,48
120627,-319,-962,-131,48
120668,-606,-1300,-170,48
120709,-206,-1057,234,48
120752,-1284,-91,-562,48
120793,-406,-824,-834,48
120834,577,-1824,375,48
120875,-244,-760,-57,48
120916,-399,-745,-449,48
120958,-402,-932,-251,48
120999,-170,-961,-109,48
121040,-185,-925,-182,48
121081,-281,-931,-135,48
121122,-433,-861,-158,48
121163,-393,-853,-231,48
121204,-306,-969,-291,48
121245,-266,-1051,-220,48
121286,-323,-1033,-151,48
121327,-209,-1146,-61,48
121368,7,-1369,-38,48
121409,-53,-1053,356,49
121450,-468,-1152,37,49
121491,-980,-1417,-239,49
121532,-907,-912,0,49
121573,-199,-992,-101,49
121614,-200,-892,-228,49
121655,-187,-853,-99,49
121696,-224,-652,-181,49
121737,-319,-461,-195,49
121778,-526,-329,-22,49
121819,-431,-655,275,49
121860,97,-1194,452,49
121901,14,-1467,996,50
121942,292,-1203,422,50
121983,-33,-927,-8,50
122024,-498,-1031,-175,50
122065,-59,-1806,511,50
122106,-999,-434,-107,50
122147,-693,-301,-901,50
122189,128,-1264,-683,50
122230,231,-1259,350,50
122271,-404,-702,-403,50
122312,-487,-767,-371,50
122353,-207,-1023,-122,50
122394,-149,-982,-200,50
122435,-176,-948,-192,50
122476,-352,-870,-111,50
122517,-425,-809,-222,50
122558,-330,-847,-204,50
122599,-342,-940,-149,50
122640,-204,-1001,-180,50
122681,-203,-1094,-160,50
122722,-277,-1287,-105,50
122763,-152,-1390,133,51
122804,-142,-937,156,51
122845,-518,-1159,-87,51
122886,-927,-1337,-295,51
122927,-496,-890,-4,51
122968,-235,-1103,-193,51
123009,-152,-861,-230,51
123051,-162,-787,-181,51
123092,-273,-679,-270,51
123133,-417,-541,-103,51
123174,-576,-486,74,51
123215,-350,-811,263,51
123256,86,-1018,189,51
123298,13,-1247,697,51
123339,320,-1333,361,52
123380,56,-1047,260,52
123421,-367,-872,88,52
123462,-609,-1070,-180,52
123504,-543,-1239,333,52
123545,-472,-817,-428,52
123586,-413,-521,-698,52
123627,-82,-1162,-291,52
123669,-109,-1061,124,53
123710,-401,-749,-345,53
123751,-384,-909,-143,53
123792,-234,-986,-162,53
123833,-101,-998,-208,53
123875,-317,-965,-191,53
123916,-470,-878,-211,53
123957,-456,-889,-230,53
123998,-355,-909,-266,53
124039,-284,-943,-249,53
124080,-275,-969,-277,53
124121,-246,-962,-262,53
124162,-218,-1021,-216,53
124203,-328,-1028,-216,53
124244,-509,-969,-244,53
124285,-525,-883,-357,53
124326,-496,-1102,-306,53
124367,-436,-750,-153,54
124408,-346,-881,-241,54
124449,-35,-906,-207,54
124490,181,-1158,108,54
124531,93,-1092,104,54
124572,-243,-979,239,54
124613,-520,-801,225,54
124654,-505,-724,3,54
124695,-278,-822,-11,54
124736,-251,-838,37,54
124777,-227,-862,23,54
124818,-156,-952,39,54
124859,-7,-950,136,54
124900,0,-916,120,54
124942,-125,-972,229,54
124983,-498,-1526,448,54
125024,275,-1202,530,55
125065,-759,-544,-351,55
125106,-729,-475,-431,55
125147,209,-1505,-280,55
125189,-173,-953,-127,55
125230,-396,-779,-580,55
125271,-289,-975,-197,55
125312,-192,-1028,-24,55
125353,-201,-959,-120,55
125395,-148,-985,-124,55
125436,-135,-981,-123,55
125480,-342,-916,-134,55
125521,-385,-867,-185,55
125563,-314,-874,-240,55
125604,-239,-974,-248,55
125645,-289,-1035,-195,55
125686,-394,-1014,-113,55
125727,-353,-1143,-72,55
125769,-140,-1352,-18,56
125810,-332,-981,338,56
125851,-438,-1041,70,56
125892,-689,-1180,-149,56
125933,-714,-979,-139,56
125974,-214,-1204,-47,56
126015,-49,-1071,-101,56
126056,-162,-952,-77,56
126097,-277,-763,-88,56
126138,-377,-477,-149,56
126180,-617,-304,28,56
126221,-683,-385,259,56
126262,-107,-925,216,56
126303,142,-1049,536,56
126344,289,-1322,566,57
126386,281,-1090,351,57
126427,-362,-961,5,57
126468,-511,-2322,1373,57
126509,-318,-524,-845,57
126550,-1510,294,-387,57
126592,-424,-1160,-755,57
126633,830,-1902,421,57
126674,-203,-778,-58,57
126715,-388,-711,-445,57
126756,-485,-953,-129,57
126797,-210,-986,-31,57
126838,-21,-953,-360,57
126879,-103,-1017,-274,57
126920,-490,-836,-39,57
126961,-418,-831,-171,57
127002,-343,-890,-233,57
127043,-279,-937,-291,57
127084,-287,-992,-292,57
127125,-430,-970,-146,57
127166,-366,-1004,-98,57
127207,-198,-1311,-93,57
127248,-8,-1367,134,58
127289,-178,-991,139,58
127330,-513,-1286,-184,58
127371,-828,-1188,-321,58
127412,-428,-871,-119,58
127453,-287,-1066,-118,58
127494,-132,-828,-191,58
127535,-212,-814,-141,58
127576,-284,-704,-179,58
127617,-411,-607,-6,58
127658,-564,-650,217,58
127699,-301,-845,300,58
127740,-12,-966,218,58
127781,-50,-1055,504,58
127822,138,-1108,325,58
127864,19,-975,251,58
127905,-102,-794,187,58
127946,-276,-809,-63,58
127987,-769,-1712,260,58
128028,-250,-966,8,59
128070,-1046,-60,-639,59
128111,-306,-882,-718,59
128152,718,-1954,533,59
128193,-205,-787,-204,59
128234,-513,-722,-369,59
128276,-384,-891,-109,59
128317,-146,-1015,-233,59
128358,-32,-983,-235,59
128399,-184,-948,-179,59
128440,-394,-866,-188,59
128482,-454,-857,-227,59
128523,-388,-901,-286,59
128564,-302,-946,-275,59
128605,-244,-949,-199,59
128646,-286,-957,-233,59
128687,-396,-965,-131,59
128728,-234,-1153,-211,59
128769,-177,-1306,-165,60
128810,-242,-1074,230,60
128851,-292,-852,201,60
128892,-433,-1135,-120,60
128933,-724,-1152,-250,60
128974,-480,-983,-108,60
129015,-156,-1025,-99,60
129056,-89,-953,-149,60
129097,-239,-928,-132,60
129138,-298,-825,-95,60
129179,-483,-630,-11,60
129220,-554,-615,160,60
129261,-205,-828,227,60
129302,14,-882,192,60
129343,-15,-919,235,60
129384,50,-1109,453,60
129425,146,-1098,318,61
129466,-172,-851,189,61
129507,-484,-781,-87,61
129548,-461,-1559,290,61
129589,253,-1350,45,61
129630,-958,-310,-471,61
129671,-366,-823,-448,61
129712,325,-1528,91,61
129753,-335,-861,-217,62
129794,-458,-783,-336,62
129835,-345,-932,-203,62
129876,-184,-968,-154,62
129917,-93,-1021,-166,62
129958,-175,-1006,-135,62
129999,-346,-923,-164,62
130040,-327,-931,-197,62
130081,-238,-978,-207,62
130122,-184,-989,-274,62
130163,-159,-989,-325,62
130204,-236,-980,-188,62
130245,-213,-966,-271,62
130286,-509,-1206,-82,62
130327,-695,-792,-144,63
130368,-327,-833,-213,63
130409,-60,-1018,-172,63
130450,-96,-880,54,63
130491,-319,-946,240,63
130532,-428,-912,155,63
130574,-472,-898,121,63
130621,-493,-843,82,63
130662,-384,-860,79,63
130703,-212,-898,73,63
130744,-145,-901,68,63
130786,-130,-885,92,63
130827,-210,-884,154,63
130868,-293,-851,168,63
130909,-263,-804,120,63
130950,-238,-816,133,63
130992,-225,-807,102,63
131034,-81,-895,63,63
131075,-72,-1126,145,63
131116,-421,-1736,742,63
131157,19,-1098,395,64
131198,-742,-484,-567,64
131240,-371,-851,-384,64
131281,81,-1342,-33,64
131322,-198,-923,-177,64
131363,-416,-793,-274,64
131404,-284,-969,-155,64
131445,-269,-933,-204,64
131486,-239,-949,-214,64
131527,-99,-976,-246,64
131568,-106,-982,-269,64
131609,-169,-942,-197,64
131650,-296,-890,-191,64
131691,-238,-921,-120,64
131732,-245,-953,-168,64
131773,-237,-983,-242,64
131814,-369,-1009,-254,64
131855,-577,-989,-72,64
131896,-205,-1196,-145,64
131937,-106,-1328,-16,65
131978,-480,-1009,249,65
132019,-264,-1010,-83,65
132060,-616,-1277,-146,65
132101,-784,-924,-83,65
132142,-419,-1020,-168,65
132183,-183,-924,-160,65
132224,-175,-897,-1,65
132265,-274,-697,-104,65
132306,-337,-470,-148,65
132347,-408,-325,-61,65
132388,-379,-543,174,65
132429,100,-1132,304,65
132470,103,-1544,1076,65
132511,187,-1149,453,66
132552,38,-979,241,66
132593,-318,-849,-38,66
132634,-932,-1621,155,66
132675,-30,-803,-452,66
132716,-1378,117,-623,66
132757,-195,-1021,-680,66
132798,631,-1884,494,66
132839,-259,-798,-48,66
132880,-487,-707,-437,66
132921,-385,-925,-163,66
132962,-184,-994,-149,66
133003,-29,-989,-245,66
133044,-150,-948,-260,66
133086,-423,-867,-186,66
133127,-506,-820,-186,66
133168,-326,-903,-153,66
133209,-303,-989,-265,66
133250,-294,-1070,-213,66
133292,-325,-1027,-15,66
133333,-179,-1163,28,66
133374,1,-1312,86,66
133415,23,-1147,125,67
133456,-765,-1349,-201,67
133497,-1037,-1276,-391,67
133538,-334,-831,-15,67
133579,-260,-985,-50,67
133620,-191,-933,-137,67
133661,-224,-828,-69,67
133702,-340,-570,-159,67
133743,-453,-433,-51,67
133784,-462,-511,198,67
133825,38,-1048,294,67
133866,-23,-979,359,67
133907,-112,-1054,596,67
133948,109,-1182,434,68
133989,-4,-992,274,68
134030,-353,-894,-25,68
134071,-300,-1909,903,68
134112,-537,-443,-462,68
134153,-654,-362,-743,68
134194,244,-1424,-213,68
134235,260,-1300,239,69
134276,-465,-717,-393,69
134317,-607,-718,-251,69
134358,-237,-1006,-77,69
134399,-80,-974,-188,69
134440,-124,-942,-181,69
134481,-329,-933,-139,69
134522,-448,-830,-212,69
134563,-440,-882,-260,69
134604,-339,-939,-250,69
134645,-255,-1049,-256,69
134686,-286,-1035,-131,69
134727,-277,-1158,-61,69
134768,-178,-1357,-23,70
134809,-211,-999,297,70
134850,-248,-942,4,70
134952,-473,-807,-30,70
135052,-188,-891,-89,70
135150,-324,-704,10,70
135247,-171,-846,191,70
135347,85,-1229,563,70
135444,59,-905,77,71
135544,-384,-1572,509,71
135644,-29,-605,-351,71
135740,-26,-844,-310,71
135839,-457,-907,-275,71
135938,-378,-877,-232,71
136036,-430,-904,-304,71
136134,-335,-903,-233,71
136231,-387,-883,-205,71
136327,-320,-956,-230,71
136425,-272,-1270,-100,71
136523,-71,-904,62,72
136621,-269,-987,-319,72
136718,-281,-1076,-61,72
136817,-448,-891,-151,72
136914,-633,-530,128,72
137016,166,-1116,294,72
137114,-8,-884,318,72
137211,361,-1914,1005,72
137309,22,-998,-617,73
137409,-434,-582,-392,73
137508,-67,-977,-235,73
137607,-313,-883,-210,73
137706,-357,-852,-268,73
137804,-278,-1065,-210,73
137901,-245,-1261,-11,73
138001,-231,-1113,94,74
138099,-500,-827,11,74
138199,-136,-861,-157,74
138298,-320,-451,-192,74
138397,-182,-916,237,74
138499,147,-1094,398,74
138596,-127,-673,0,74
138691,-824,249,-1123,74
138789,515,-2463,310,75
138888,-486,-592,-355,75
138988,-146,-951,-177,75
139086,-338,-882,-135,75
139185,-321,-976,-163,75
139283,-320,-1090,114,75
139379,-193,-1079,311,75
139477,-1051,-1217,-301,75
139576,-271,-876,-107,76
139675,-293,-634,-85,76
139774,-276,-784,260,76
139873,-93,-1143,697,76
139973,-93,-814,102,77
140070,-361,-1352,-31,77
140170,-1093,69,-660,77
140266,217,-1224,382,77
140366,-410,-937,-175,77
140463,11,-1024,-289,77
140562,-514,-841,-192,77
140659,-245,-952,-311,77
140761,-321,-922,-365,77
140860,-428,-1133,-269,77
140958,-653,-931,-155,78
141053,-187,-864,-317,78
141153,-278,-840,94,78
141251,-496,-888,242,78
141347,-263,-866,249,78
141444,-211,-798,199,78
141542,-266,-785,211,78
141640,-72,-890,262,78
141738,-505,-1354,-8,78
141836,-759,-304,-574,79
141936,347,-1538,60,79
142036,-239,-880,-339,79
142134,-160,-959,-146,79
142233,-279,-918,-162,79
142330,-346,-890,-166,79
142431,-302,-1013,-186,79
142529,-321,-1119,-61,79
142627,-378,-944,335,79
142726,-836,-1125,-125,79
142825,-54,-897,-204,80
142922,-227,-687,-115,80
143022,-503,-493,143,80
143121,42,-1467,924,80
143219,-260,-1000,-95,81
143316,-820,-125,-557,81
143415,632,-1960,152,81
143514,-483,-756,-475,82
143609,-113,-929,-284,82
143710,-470,-879,-119,82
143808,-253,-1021,-228,82
143905,-332,-959,-63,82
144004,-133,-1160,219,82
144102,-912,-1160,-191,83
144200,-210,-987,-212,83
144300,-276,-648,-193,83
144400,-382,-562,143,83
144501,19,-1368,874,83
144600,-138,-834,83,84
144700,390,-1425,8,84
144797,254,-1471,-628,84
144898,-340,-716,-480,84
144995,-146,-985,-197,84
145093,-276,-938,-141,84
145191,-261,-898,-256,84
145289,-273,-1065,-172,84
145387,-42,-1395,108,84
145486,-554,-1449,-228,85
145583,-169,-953,-40,85
145679,-86,-794,-316,85
145777,-328,-735,-25,85
145876,-89,-978,76,85
145972,162,-1103,240,85
146072,2,-894,78,85
146169,-177,-1821,774,85
146268,-225,-1027,-566,86
146367,-377,-812,-322,86
146466,-335,-930,-78,86
146565,-174,-992,-131,86
146664,-459,-822,-239,86
146761,-212,-891,-215,86
146857,-416,-984,-183,86
146959,-120,-1334,-14,86
147055,-9,-952,-47,87
147154,-309,-997,-377,87
147249,-132,-1089,-191,87
147347,-408,-721,-223,87
147444,-495,-632,140,87
147541,114,-965,379,87
147639,69,-1019,164,87
147738,-708,-1192,401,87
147835,307,-1202,-637,88
147933,-340,-834,-414,88
148031,-397,-950,-104,88
148130,-308,-885,-210,88
148228,-415,-871,-150,88
148325,-334,-1145,-287,88
148423,-178,-1327,-7,89
148519,-97,-1025,-235,89
148619,-306,-839,-315,89
148717,-285,-1025,-129,89
148815,-509,-656,-92,89
148911,-319,-725,232,89
149009,-32,-1000,480,89
149109,-101,-968,283,89
149205,-364,-1033,-284,89
149308,8,-1258,-569,89
149406,-335,-819,-324,90
149506,-317,-900,-127,90
149604,-115,-942,-161,90
149703,-378,-899,-217,90
149803,-458,-969,-134,90
149900,-90,-1116,-15,90
149998,-164,-1216,251,90
150096,-272,-895,-552,91
150196,-41,-942,-367,91
150295,-183,-1001,-433,91
150394,-455,-1186,-30,91
150491,-457,-654,-133,92
150591,149,-939,35,92
150687,87,-1091,189,92
150787,-1184,-1817,660,92
150885,-677,-284,-705,93
150985,-204,-815,-140,93
151083,-278,-942,-125,93
151184,-196,-972,-189,93
151281,-473,-863,-170,93
151380,-177,-902,-261,93
151477,-549,-926,-62,93
151575,-24,-1361,-138,93
151673,-619,-1181,-101,94
151771,-227,-1228,-184,94
151869,-225,-911,-219,94
151969,-436,-629,-94,94
152068,-468,-802,280,94
152165,273,-1177,469,94
152263,-35,-954,89,95
152363,-151,-1030,146,95
152459,58,-1337,-514,95
152559,-352,-770,-373,96
152658,-258,-932,-177,96
152755,-263,-914,-271,96
152854,-647,-871,-160,96
152954,-301,-976,-523,96
153051,-390,-1074,-265,96
153149,-903,-736,-358,96
153248,-329,-821,-267,97
153348,62,-980,-358,97
153447,-131,-1024,313,97
153547,-336,-993,44,97
153645,-226,-894,-41,97
153744,-12,-904,105,97
153844,-52,-1034,164,97
153940,-4,-1046,-20,97
154038,-134,-1008,-299,97
154137,-278,-869,-167,97
154235,-260,-932,-137,97
154332,-187,-930,-182,97
154429,-398,-849,-303,97
154528,-341,-991,-180,97
154624,-179,-1178,-63,97
154725,-216,-1004,225,98
154823,-899,-832,-33,98
154920,-164,-1029,-16,98
155017,-358,-676,-81,98
155115,-224,-731,211,98
155213,57,-1059,579,98
155313,-69,-951,261,99
155410,-49,-2008,705,99
155509,-306,-789,-663,99
155607,-430,-758,-334,99
155706,-227,-1008,-180,99
155805,-182,-983,-228,99
155904,-358,-868,-197,99
156005,-393,-990,-254,99
156103,-207,-1027,-85,99
156202,-83,-1121,260,99
156301,-900,-1331,-221,99
156401,-254,-948,-244,100
156498,-328,-735,-229,100
156596,-543,-535,122,100
156693,-70,-1107,540,100
156789,-6,-1017,207,101
156886,-367,-1525,310,101
156985,-1204,109,-453,101
157082,-1,-1041,162,101
157181,-333,-924,-197,101
157280,-51,-981,-260,101
157378,-437,-890,-200,101
157477,-283,-1004,-207,101
157574,-423,-902,-225,101
157671,-502,-1070,-325,101
157769,-781,-758,-594,102
157868,-486,-780,-430,102
157966,-258,-821,115,102
158066,-280,-952,244,102
158168,-312,-894,184,102
158264,-248,-903,282,102
158360,-187,-782,196,102
158459,-144,-843,294,102
158556,-135,-844,234,102
158653,-921,-1788,172,102
158754,-672,-729,-342,103
158854,186,-1193,52,103
158954,-388,-875,-203,103
159051,74,-1020,-198,103
159152,-376,-876,-159,103
159252,-196,-946,-150,103
159350,-414,-944,-206,103
159446,-150,-1038,-157,103
159546,-334,-1027,400,103
159643,-783,-1092,-214,103
159743,-165,-909,-162,104
159841,-291,-692,-152,104
159939,-491,-658,244,104
160038,-105,-1099,624,104
160137,-10,-950,179,105
160234,-798,-1934,459,105
160333,-921,-189,-627,105
160432,-240,-870,-139,105
160530,-339,-954,-162,105
160630,-7,-1005,-323,105
160727,-378,-846,-169,105
160829,-285,-974,-203,105
160926,-258,-953,-185,105
161026,-81,-1447,187,105
161126,-815,-1401,-345,106
161226,-258,-968,-305,106
161327,-268,-792,-143,106
161425,-418,-688,149,106
161524,-117,-859,144,106
161625,313,-1268,319,106
161722,-569,-1150,7,107
161821,-988,-12,-578,107
161918,488,-1547,369,107
162015,-477,-757,-255,107
162114,-115,-959,-229,107
162211,-387,-861,-198,107
162310,-395,-876,-205,107
162407,-302,-993,-248,107
162507,-255,-1001,-161,107
162606,-332,-1038,239,107
162704,-520,-1107,-209,107
162800,-214,-1070,-98,108
162899,-232,-985,-223,108
162998,-282,-771,-3,108
163097,-16,-992,-2,108
163194,-56,-860,-52,108
163293,-395,-829,31,108
163387,-565,-845,164,108
163486,270,-1319,-151,108
163582,-341,-872,-313,109
163680,-278,-938,-101,109
163775,-378,-941,-286,109
163874,-336,-902,-265,109
163971,-349,-879,-240,109
164071,-359,-985,-167,109
164169,-351,-1228,-83,109
164266,13,-1011,-7,110
164365,-430,-1029,-258,110
164466,-215,-1058,-112,110
164563,-422,-903,-262,110
164662,-557,-618,101,110
164759,-77,-937,262,110
164856,62,-976,288,110
164954,-317,-997,-231,110
165052,-1133,96,-838,110
165151,231,-1561,455,111
165248,-263,-893,-226,111
165344,-50,-1003,-167,111
165445,-441,-815,-262,111
165546,-359,-870,-246,111
165643,-330,-998,-241,111
165743,-245,-1265,-135,111
165842,-292,-1042,128,112
165942,-728,-875,25,112
166042,-103,-968,-136,112
166142,-349,-562,-128,112
166243,-187,-853,289,112
166341,110,-1130,483,112
166441,-193,-750,139,113
166539,9,-806,-364,113
166637,195,-1529,-395,113
166734,-428,-716,-347,114
166830,-125,-981,-183,114
166929,-276,-963,-198,114
167029,-365,-861,-268,114
167126,-371,-924,-228,114
167224,-293,-975,-131,114
167322,-242,-1072,227,114
167420,-714,-1196,-288,114
167520,-280,-1026,-185,115
167618,-316,-813,-144,115
167719,-473,-642,130,115
167818,-111,-878,21,115
167917,174,-1104,264,115
168014,-82,-867,83,115
168113,177,-1684,527,115
168212,-630,-608,-591,116
168309,-225,-896,-184,116
168407,-288,-914,-216,116
168504,-81,-991,-184,116
168603,-412,-892,-156,116
168700,-198,-963,-263,116
168798,-387,-918,-320,116
168898,-377,-1231,-361,116
168994,-536,-843,-211,117
169096,-434,-982,-328,117
169194,-153,-928,148,117
169292,-385,-873,170,117
169389,-254,-827,241,117
169487,-58,-857,306,117
169587,-121,-794,231,117
169686,-200,-883,230,117
169783,-60,-1074,250,117
169879,-127,-1027,44,117
169978,-56,-1265,-229,117
170076,-277,-850,-302,118
170172,-261,-959,-113,118
170271,-54,-1004,-132,118
170370,-343,-890,-188,118
170469,-233,-918,-240,118
170570,-394,-926,-190,118
170670,-292,-1014,-185,118
170769,-336,-1061,101,118
170869,-465,-1083,-84,118
170968,-232,-1053,38,119
171065,-216,-901,-25,119
171163,-228,-679,94,119
171261,15,-907,158,119
171360,48,-1167,144,119
171460,-502,-576,-363,119
171560,-461,-271,-603,119
171660,11,-1310,9,119
171759,-215,-997,-253,120
171857,-458,-862,-273,120
171957,-362,-892,-307,120
172053,-403,-871,-297,120
172151,-317,-899,-212,120
172251,-385,-866,-218,120
172349,-521,-1189,-42,120
172446,-250,-908,103,121
172546,-343,-1092,-137,121
172640,-278,-1002,-76,121
172739,-433,-951,9,121
172835,-471,-698,127,121
172934,-86,-883,230,121
173031,-57,-1017,310,121
173129,-376,-713,118,121
173225,-113,-961,141,121
173324,-102,-1447,469,121
173422,-251,-850,-344,122
173519,-238,-867,-218,122
173617,-227,-964,-122,122
173714,-110,-891,-252,122
173811,-235,-992,-135,122
173913,-209,-997,-122,122
174010,-74,-962,-204,122
174109,-109,-911,-18,122
174206,-108,-1012,-18,122
174304,-227,-1112,34,122
174402,-592,-805,0,122
174502,-236,-859,88,122
174599,-290,-1068,-7,122
174698,-218,-882,-166,122
174795,-190,-603,-179,122
174893,-372,-940,-322,122
174989,31,-955,-675,122
175085,-412,-753,-167,122
175184,154,-963,57,122
175283,-139,-925,-141,122
175380,-103,-910,182,122
175479,-239,-1070,332,122
175576,-80,-911,328,122
175675,-185,-902,128,122
175774,-319,-955,204,122
175873,-481,-959,166,122
175972,-555,-654,-147,122
176071,-405,-615,-280,122
176168,-466,-708,-236,122
176267,-418,-949,-220,122
176364,-565,-799,-199,122
176463,-766,-725,-77,122
176561,-646,-757,-18,122
176660,-677,-775,-165,122
176758,-578,-641,77,122
176857,-333,-831,53,122
176955,-433,-773,26,122
177056,-660,-895,-143,122
177156,-704,-941,53,122
177253,-598,-494,119,122
177352,-918,-681,254,122
177449,-758,-681,179,122
177549,-340,-748,68,122
177646,-720,-785,134,122
177744,-1062,-468,193,122
177841,-766,-614,180,122
177938,-687,-578,153,122
178037,-741,-703,-103,122
178138,-833,-672,220,122
178236,-77,-1763,-139,122
178337,-179,-541,-252,123
178434,-403,101,-645,123
178533,-546,66,-878,123
178630,-655,74,-1323,123
178729,-503,-35,-962,124
178829,-452,-129,-802,124
178928,-88,-13,-1001,124
179024,-73,-50,-1015,124
179121,95,84,-985,124
179219,-169,-77,-1021,124
179319,-155,-72,-1021,124
179416,-15,-23,-1022,124
179513,-14,-22,-1019,124
179613,-15,-22,-1021,124
179710,-13,-22,-1019,124
179808,-14,-23,-1020,124
179908,-15,-21,-1020,124
180004,-16,-20,-1021,124
180100,-18,-20,-1023,124
180198,-13,-20,-1020,124
180295,-8,-25,-1019,124
180393,-13,-23,-1021,124
180491,-14,-22,-1020,124
180588,-16,-17,-1022,124
180689,-17,-21,-1021,124
180786,-17,-26,-1019,124
180888,-18,-19,-1021,124
180985,-16,-22,-1021,124
181085,-13,-24,-1020,124
181184,-14,-24,-1019,124
181280,-14,-24,-1019,124
181377,-17,-22,-1019,124
181474,-18,-21,-1021,124
181571,-18,-18,-1021,124
181670,-9,-25,-1018,124
181767,-3,-22,-1018,124
181867,-9,-24,-1018,124
181967,-22,-22,-1020,124
182065,-26,-20,-1021,124
182166,-16,-15,-1023,124
182263,-5,-24,-1019,124
182363,-2,-31,-1015,124
182461,-17,-18,-1021,124
182560,-26,-17,-1023,124
182659,-23,-18,-1023,124
182758,-12,-23,-1020,124
182854,-9,-26,-1017,124
182954,-10,-24,-1018,124
183053,-17,-21,-1020,124
183153,-21,-20,-1021,124
183251,-17,-19,-1021,124
183352,-16,-21,-1020,124
183448,-14,-22,-1020,124
183546,-6,-26,-1018,124
183641,-11,-22,-1020,124
183740,-16,-23,-1020,124
183840,-16,-20,-1022,124
183938,-16,-21,-1020,124
184034,-15,-20,-1020,124
184134,-9,-21,-1019,124
184233,-10,-24,-1018,124
184333,-15,-22,-1020,124
184431,-17,-19,-1021,124
184531,-14,-21,-1021,124
184630,-13,-22,-1019,124
184729,-14,-21,-1021,124
184829,-15,-20,-1019,124
184927,-13,-22,-1020,124
185027,-13,-22,-1020,124
185124,-15,-21,-1020,124
185223,-13,-20,-1019,124
185320,-14,-24,-1019,124
185418,-16,-21,-1020,124
185515,-18,-18,-1021,124
185615,-15,-22,-1019,124
185711,-13,-24,-1021,124
185810,-13,-20,-1020,124
185906,-14,-21,-1019,124
186004,-15,-25,-1020,124
186102,-18,-19,-1021,124
186205,-18,-20,-1021,124
186303,-21,-20,-1021,124
186400,-9,-27,-1018,124
186498,-7,-26,-1019,124
186597,-15,-22,-1020,124
186695,-15,-21,-1019,124
186793,-19,-20,-1020,124
186894,-15,-22,-1019,124
186994,-15,-21,-1020,124
187091,-16,-21,-1021,124
187192,-12,-24,-1019,124
187290,-11,-23,-1019,124
187389,-13,-20,-1020,124
187487,-20,-24,-1019,124
187585,-23,-19,-1021,124
187682,-17,-25,-1019,124
187781,-8,-27,-1018,124
187877,-10,-21,-1018,124
187975,-12,-22,-1020,124
188071,-13,-20,-1020,124
188170,-17,-20,-1020,124
188268,-17,-18,-1021,124
188367,-13,-24,-1019,124
188463,-11,-23,-1019,124
188562,-13,-25,-1019,124
188660,-18,-22,-1020,124
188760,-17,-23,-1021,124
188856,-15,-20,-1021,124
188955,-14,-23,-1020,124
189054,-16,-21,-1021,124
189150,-14,-20,-1021,124
189247,-12,-25,-1018,124
189344,-18,-19,-1022,124
189443,-16,-21,-1021,124
189541,-14,-23,-1020,124
189643,-15,-18,-1021,124
189742,-10,-25,-1018,124
189841,-11,-25,-1019,124
189940,-18,-17,-1021,124
190039,-23,-18,-1023,124
190137,-13,-24,-1019,124
190234,-12,-23,-1021,124
190330,-8,-23,-1020,124
190429,-12,-21,-1020,124
190530,-9,-25,-1019,124
190629,-19,-19,-1021,124
190727,-26,-20,-1022,124
190825,-21,-20,-1022,124
190924,-9,-28,-1018,124
191022,-10,-28,-1016,124
191120,-15,-23,-1020,124
191220,-22,-18,-1023,124
191317,-21,-20,-1022,124
191416,-9,-26,-1019,124
191514,-12,-20,-1020,124
191612,-11,-26,-1019,124
191710,-10,-23,-1019,124
191807,-15,-24,-1019,124
191906,-20,-19,-1022,124
192004,-18,-21,-1021,124
192105,-12,-20,-1020,124
192203,-12,-23,-1019,124
192303,-11,-23,-1019,124
192401,-15,-22,-1020,124
192502,-16,-22,-1020,124
192601,-20,-19,-1021,124
192697,-18,-18,-1021,124
192795,-12,-24,-1018,124
192891,-8,-27,-1018,124
192991,-16,-20,-1021,124
193091,-21,-15,-1024,124
193190,-22,-11,-1024,124
193286,-16,-24,-1018,124
193383,-10,-24,-1018,124
193481,-9,-24,-1018,124
193581,-16,-24,-1019,124
193679,-25,-16,-1024,124
193778,-23,-15,-1024,124
193878,-13,-23,-1019,124
193976,-6,-27,-1016,124
194073,-9,-24,-1019,124
194171,-17,-21,-1021,124
194267,-20,-19,-1021,124
194366,-16,-17,-1022,124
194464,-12,-23,-1019,124
194563,-6,-23,-1018,124
194663,-13,-29,-1018,124
194761,-19,-20,-1021,124
194861,-20,-21,-1021,124
194959,-21,-19,-1021,124
195057,-20,-18,-1021,124
195156,-18,-21,-1020,124
195254,-16,-23,-1020,124
195352,-14,-28,-1018,124
195450,-15,-19,-1020,124
195549,-19,-16,-1023,124
195647,-14,-22,-1020,124
195743,-10,-23,-1018,124
195841,-15,-24,-1021,124
195940,-21,-17,-1023,124
196039,-22,-16,-1024,124
196140,-17,-25,-1020,124
196241,-12,-23,-1020,124
196338,-10,-26,-1019,124
196437,-6,-23,-1018,124
196535,-10,-26,-1017,124
196633,-21,-20,-1021,124
196732,-19,-19,-1022,124
196832,-17,-19,-1021,124
196932,-16,-21,-1019,124
197030,-11,-19,-1020,124
197127,-12,-23,-1019,124
197227,-14,-22,-1019,124
197324,-12,-23,-1021,124
197422,-12,-24,-1018,124
197520,-20,-18,-1022,124
197621,-23,-19,-1020,124
197717,-14,-24,-1019,124
197816,-8,-26,-1019,124
197913,-9,-27,-1018,124
198010,-18,-17,-1021,124
198110,-19,-20,-1022,124
198208,-19,-17,-1022,124
198307,-10,-21,-1019,124
198403,-9,-27,-1017,124
198504,-9,-23,-1019,124
198603,-19,-15,-1023,124
198702,-21,-21,-1021,124
198800,-11,-24,-1019,124
198899,-9,-25,-1019,124
198998,-13,-25,-1019,124
199096,-19,-20,-1022,124
199193,-17,-21,-1020,124
199289,-17,-20,-1021,124
199383,-13,-23,-1020,124
199484,-10,-24,-1020,124
199578,-13,-22,-1020,124
199677,-12,-24,-1019,124
199773,-17,-17,-1022,124
199871,-21,-19,-1021,124
199970,-18,-21,-1020,124
200068,-14,-19,-1022,124
200168,-9,-24,-1018,124
200267,-11,-24,-1019,124
200366,-15,-25,-1019,124
200465,-14,-24,-1020,124
200565,-17,-18,-1022,124
200664,-17,-20,-1021,124
200759,-15,-22,-1019,124
200858,-12,-22,-1020,124
200956,-13,-23,-1020,124
201056,-14,-23,-1019,124
201154,-13,-23,-1017,124
201251,-11,-22,-1019,124
201347,-11,-21,-1021,124
201446,-12,-20,-1021,124
201544,-12,-26,-1018,124
201642,-16,-20,-1020,124
201741,-24,-14,-1025,124
201839,-16,-20,-1020,124
201941,-11,-24,-1018,124
202038,-8,-28,-1017,124
202137,-12,-25,-1017,124
202236,-24,-16,-1023,124
202334,-21,-20,-1022,124
202435,-17,-20,-1022,124
202532,-16,-22,-1021,124
202630,-16,-22,-1021,124
202726,-17,-23,-1019,124
202826,-15,-23,-1020,124
202922,-16,-23,-1020,124
203022,-12,-23,-1020,124
203119,-11,-23,-1018,124
203218,-13,-24,-1020,124
203316,-18,-20,-1020,124
203415,-19,-21,-1020,124
203514,-14,-22,-1020,124
203613,-14,-21,-1020,124
203712,-13,-24,-1018,124
203809,-13,-23,-1018,124
203906,-14,-20,-1021,124
204004,-17,-21,-1020,124
204101,-15,-22,-1019,124
204199,-14,-20,-1020,124
204299,-13,-22,-1019,124
204398,-13,-21,-1020,124
204496,-14,-21,-1020,124
204595,-14,-20,-1021,124
204694,-14,-23,-1020,124
204791,-15,-22,-1020,124
204892,-16,-23,-1021,124
204992,-15,-22,-1019,124
205093,-18,-21,-1021,124
205189,-18,-19,-1022,124
205287,-12,-22,-1020,124
205384,-12,-19,-1022,124
205484,-17,-15,-1023,124
205582,-15,-23,-1020,124
205682,-10,-24,-1019,124
205779,-11,-24,-1020,124
205878,-13,-23,-1020,124
205973,-16,-20,-1021,124
206071,-16,-20,-1020,124
206169,-15,-22,-1020,124
206269,-13,-23,-1019,124
206364,-13,-23,-1018,124
206460,-15,-21,-1021,124
206556,-15,-21,-1020,124
206656,-15,-20,-1020,124
206752,-15,-21,-1020,124
206851,-14,-21,-1020,124
206945,-15,-21,-1020,124
207045,-13,-22,-1022,124
207143,-15,-23,-1020,124
207241,-15,-21,-1021,124
207342,-15,-22,-1020,124
207441,-14,-21,-1020,124
207539,-14,-22,-1020,124
207636,-15,-22,-1020,124
207731,-14,-21,-1020,124
207830,-15,-21,-1021,124
207927,-14,-21,-1020,124
208028,-13,-22,-1020,124
208128,-14,-22,-1021,124
208226,-14,-22,-1020,124
208324,-15,-22,-1021,124
208421,-15,-22,-1020,124
208519,-15,-21,-1020,124
208616,-15,-22,-1020,124
208715,-14,-21,-1019,124
208813,-15,-22,-1019,124
208910,-13,-22,-1019,124
209006,-14,-21,-1019,124
209106,-15,-21,-1021,124
209203,-15,-22,-1019,124
209304,-15,-21,-1020,124
209402,-14,-21,-1019,124
209502,-14,-22,-1021,124
209601,-14,-22,-1020,124
209700,-13,-21,-1021,124
209799,-14,-21,-1020,124
209898,-14,-23,-1019,124
209996,-14,-22,-1021,124
210095,-14,-21,-1020,124
210194,-15,-22,-1021,124
210296,-14,-23,-1020,124
210391,-14,-23,-1020,124
210492,-13,-21,-1020,124
210589,-14,-22,-1020,124
210687,-16,-22,-1020,124
210790,-17,-20,-1020,124
210886,-16,-18,-1021,124
210983,-18,-17,-1022,124
211081,-15,-22,-1020,124
211177,-13,-22,-1019,124
211276,-14,-22,-1019,124
211375,-14,-23,-1019,124
211473,-15,-22,-1019,124
211571,-14,-22,-1019,124
211671,-15,-21,-1020,124
211769,-13,-22,-1021,124
211868,-14,-23,-1020,124
211966,-14,-24,-1020,124
212064,-13,-21,-1021,124
212160,-15,-21,-1020,124
212258,-14,-20,-1020,124
212358,-14,-22,-1020,124
212459,-14,-22,-1021,124
212558,-15,-22,-1020,124
212658,-14,-22,-1020,124
212756,-14,-21,-1020,124
212856,-14,-22,-1020,124
212951,-15,-21,-1020,124
213051,-13,-21,-1019,124
213151,-15,-21,-1020,124
213250,-14,-21,-1021,124
213352,-14,-22,-1020,124
213453,-13,-21,-1020,124
213550,-15,-22,-1020,124
213649,-14,-22,-1019,124
213748,-14,-22,-1020,124
213848,-14,-20,-1020,124
213945,-15,-22,-1020,124
214042,-14,-22,-1019,124
214140,-14,-21,-1020,124
214237,-15,-22,-1020,124
214334,-15,-21,-1020,124
214433,-15,-22,-1020,124
214533,-14,-21,-1021,124
214628,-12,-23,-1019,124
214726,-14,-21,-1021,124
214823,-19,-19,-1022,124
214920,-17,-17,-1022,124
215021,-14,-25,-1019,124
215120,-10,-22,-1020,124
215218,-12,-13,-1023,124
215316,-7,-23,-1019,124
215414,-10,-21,-1018,124
215513,-17,-20,-1020,124
215606,-17,-21,-1020,124
215705,-16,-22,-1020,124
215803,-13,-23,-1020,124
215900,-13,-23,-1019,124
216000,-15,-21,-1021,124
216097,-16,-21,-1021,124
216195,-16,-21,-1020,124
216293,-15,-22,-1019,124
216394,-15,-22,-1020,124
216491,-14,-22,-1019,124
